"Time (s)","Linear Acceleration x (m/s^2)","Linear Acceleration y (m/s^2)","Linear Acceleration z (m/s^2)"
8.339659000E-3,-2.018049955E-1,1.105210036E-1,-3.228999972E-1
1.325380700E-2,-2.079049945E-1,1.262080073E-1,-3.366610110E-1
1.819657300E-2,-2.159750015E-1,1.425040066E-1,-3.518419862E-1
2.312730300E-2,-6.365799904E-2,1.255590022E-1,3.541469872E-1
2.806157400E-2,-7.786799967E-2,1.441899985E-1,3.342939913E-1
3.299265500E-2,-2.472900040E-2,2.032099962E-1,4.884270132E-1
3.792373200E-2,7.465200126E-2,1.781730056E-1,5.126979947E-1
4.285504000E-2,1.416999996E-1,1.835429966E-1,4.866450131E-1
4.778615000E-2,1.890130043E-1,1.429609954E-1,4.272080064E-1
5.271730400E-2,1.769369990E-1,1.496769935E-1,3.589569926E-1
5.764838100E-2,1.608960032E-1,1.605120003E-1,2.821100056E-1
6.257968700E-2,1.390559971E-1,1.707410067E-1,1.921149939E-1
6.751076500E-2,9.485500306E-2,1.758179963E-1,1.535429955E-1
7.244191700E-2,9.023900330E-2,2.326000035E-1,7.800299674E-2
7.737303000E-2,8.916699886E-2,2.362219989E-1,3.454999998E-2
8.230433600E-2,1.036240011E-1,2.355210036E-1,5.398200080E-2
8.723541500E-2,1.673319936E-1,1.851489991E-1,9.653700143E-2
9.216649200E-2,1.945849955E-1,1.354030073E-1,1.145830005E-1
9.709764400E-2,2.353529930E-1,1.189939976E-1,1.108499989E-1
1.020289510E-1,2.141190022E-1,1.494109929E-1,5.050199851E-2
1.069600540E-1,2.054650038E-1,1.268839985E-1,-1.649199985E-2
1.118911310E-1,2.070939988E-1,1.161789969E-1,-4.467400163E-2
1.168222080E-1,1.717270017E-1,1.269980073E-1,-3.383100033E-2
1.217533790E-1,1.277910024E-1,1.287869960E-1,-6.000999827E-3
1.266844580E-1,7.978200167E-2,1.309240013E-1,1.723200083E-2
1.316155350E-1,1.338199992E-2,1.452039927E-1,3.360499814E-2
1.365468460E-1,1.829200052E-2,1.665119976E-1,4.987499863E-2
1.414779250E-1,4.351500049E-2,2.042360008E-1,8.975899965E-2
1.464090850E-1,5.801799893E-2,1.828439981E-1,1.526840031E-1
1.513401640E-1,1.116129979E-1,1.713870019E-1,1.955669969E-1
1.562714700E-1,2.037249953E-1,1.481440067E-1,2.110770047E-1
1.612025690E-1,2.682079971E-1,1.391350031E-1,1.974249929E-1
1.661337210E-1,2.897450030E-1,1.230560020E-1,1.790920049E-1
1.710648000E-1,3.305279911E-1,1.214289963E-1,1.967650056E-1
1.759961380E-1,3.667330146E-1,1.649779975E-1,2.483250052E-1
1.809272170E-1,3.418630064E-1,1.918199956E-1,3.004769981E-1
1.858583690E-1,2.853460014E-1,2.040199935E-1,2.794719934E-1
1.907894580E-1,2.535969913E-1,1.859740019E-1,3.494040072E-1
1.957205350E-1,1.685460061E-1,1.450559944E-1,3.453699946E-1
2.006518410E-1,1.440989971E-1,7.397700101E-2,3.076809943E-1
2.055829970E-1,7.587800175E-2,3.234399855E-2,2.560530007E-1
2.105140740E-1,3.029100038E-2,1.499699987E-2,1.999890059E-1
2.154451460E-1,9.387999773E-3,4.499100149E-2,1.350239962E-1
2.203764510E-1,7.989999722E-4,1.051020026E-1,7.798799872E-2
2.253075250E-1,1.314099971E-2,1.739050001E-1,7.867400348E-2
2.302386020E-1,2.978100069E-2,2.061470002E-1,4.123700038E-2
2.351697540E-1,5.859999917E-3,2.166679949E-1,-3.181000007E-3
2.401008530E-1,-2.039300092E-2,2.246730030E-1,-2.831000090E-2
2.450321590E-1,-1.764499955E-2,1.756130010E-1,-1.085549966E-1
2.499632380E-1,2.044899948E-2,1.202180013E-1,-1.415529996E-1
2.548943100E-1,-3.911200166E-2,1.040799990E-1,-1.173129976E-1
2.598254610E-1,-7.540199906E-2,8.953999728E-2,-9.651800245E-2
2.647565400E-1,-8.134000003E-2,1.039120033E-1,-3.536700085E-2
2.696878370E-1,-7.631400228E-2,1.352459937E-1,5.885599926E-2
2.746189160E-1,-4.391400144E-2,1.927289963E-1,1.526959985E-1
2.795500680E-1,-1.244699955E-2,2.471009940E-1,1.556140035E-1
2.844811520E-1,-3.062000033E-3,2.745630145E-1,9.403800219E-2
2.894122290E-1,-1.066699997E-2,2.991060019E-1,4.947200045E-2
2.943435190E-1,-2.760300040E-2,2.875609994E-1,-4.032700136E-2
2.992746750E-1,-1.843100041E-2,2.026229948E-1,-2.759799920E-2
3.042057520E-1,6.843099743E-2,1.472029984E-1,2.979099937E-2
3.091368340E-1,1.584620029E-1,7.113199681E-2,6.464900076E-2
3.140681400E-1,1.707269996E-1,-6.207999773E-3,1.105939969E-1
3.189992190E-1,1.957869977E-1,-5.168500170E-2,1.556890011E-1
3.239303010E-1,2.269279957E-1,-5.645300075E-2,8.317500353E-2
3.288614530E-1,2.364030033E-1,1.989199966E-2,3.962000087E-2
3.337927600E-1,1.728679985E-1,7.732699811E-2,-5.855999887E-3
3.387239110E-1,8.003699780E-2,8.290600032E-2,-1.083730012E-1
3.436549110E-1,1.505899988E-2,5.627200007E-2,-1.796959937E-1
3.485860630E-1,-8.934900165E-2,2.902200073E-2,-1.506959945E-1
3.535173710E-1,-1.571149975E-1,5.759299919E-2,-1.599600017E-1
3.584484500E-1,-2.766239941E-1,1.013460010E-1,-8.533299714E-2
3.633796010E-1,-4.188059866E-1,2.048680037E-1,-4.839500040E-2
3.683106800E-1,-4.958429933E-1,3.057149947E-1,1.530400012E-2
3.732419860E-1,-5.062469840E-1,3.657050133E-1,7.664699852E-2
3.781730650E-1,-4.557799995E-1,4.607770145E-1,9.488800168E-2
3.831041420E-1,-4.229219854E-1,5.073109865E-1,4.379599914E-2
3.880352940E-1,-3.927969933E-1,5.127080083E-1,-2.866099961E-2
3.929663680E-1,-3.337970078E-1,5.243380070E-1,-1.484320015E-1
3.978976730E-1,-3.075320125E-1,5.117210150E-1,-1.455979943E-1
4.028287520E-1,-2.567540109E-1,4.655300081E-1,-1.208970025E-1
4.077598340E-1,-2.033039927E-1,4.217039943E-1,-7.444900274E-2
4.126909860E-1,-1.148670018E-1,3.309920132E-1,1.222029999E-1
4.176222940E-1,1.929200068E-2,1.864809990E-1,2.626399994E-1
4.225533680E-1,1.312189996E-1,4.341899976E-2,3.896110058E-1
4.274844450E-1,1.896010041E-1,-7.903999835E-2,4.264850020E-1
4.324155970E-1,2.824229896E-1,-1.809220016E-1,4.066349864E-1
4.373466810E-1,3.573270142E-1,-2.193430066E-1,3.901720047E-1
4.422779860E-1,4.317849874E-1,-2.328519970E-1,3.511349857E-1
4.472090650E-1,4.686580002E-1,-2.074300051E-1,2.685230076E-1
4.521402260E-1,4.310919940E-1,-1.502099931E-1,2.361660004E-1
4.570713050E-1,3.367570043E-1,-9.489999712E-2,2.041420043E-1
4.620023820E-1,2.100940049E-1,1.326700021E-2,1.655219942E-1
4.669336580E-1,1.084859967E-1,6.459499896E-2,1.751720011E-1
4.718647370E-1,3.613800183E-2,1.285859942E-1,2.903519869E-1
4.767958840E-1,-3.579699993E-2,1.618510038E-1,3.459329903E-1
4.817269630E-1,-4.841500148E-2,1.925970018E-1,4.112690091E-1
4.866582690E-1,-9.002400190E-2,1.703840047E-1,4.505780041E-1
4.915893140E-1,-9.615500271E-2,1.854259968E-1,5.239440203E-1
4.965203910E-1,-1.215939969E-1,1.561799943E-1,5.931590199E-1
5.014515430E-1,-1.514430046E-1,9.896499664E-2,5.890759826E-1
5.063826220E-1,-1.163410023E-1,4.924999923E-2,5.908020139E-1
5.113139270E-1,-1.091300026E-1,3.054999933E-2,5.459190011E-1
5.162450060E-1,-4.619000107E-2,2.065999899E-3,4.783219993E-1
5.211761580E-1,2.972899936E-2,-7.340000011E-4,3.427149951E-1
5.261074660E-1,9.518499672E-2,2.219000086E-2,2.277670056E-1
5.310385450E-1,1.552850008E-1,2.571500093E-2,5.198999867E-2
5.359696270E-1,1.842720062E-1,7.917500287E-2,-1.461700052E-1
5.409007040E-1,2.022510022E-1,9.324599802E-2,-3.381150067E-1
5.458318560E-1,2.060849965E-1,9.658499807E-2,-4.787360132E-1
5.507631530E-1,2.446859926E-1,9.955299646E-2,-5.757989883E-1
5.556942320E-1,2.488099933E-1,6.757800281E-2,-6.392800212E-1
5.606253090E-1,1.856639981E-1,5.590200052E-2,-6.666790247E-1
5.655564510E-1,1.405739933E-1,5.963800102E-2,-6.557750106E-1
5.704877590E-1,7.549200207E-2,7.403799891E-2,-6.041309834E-1
5.754188380E-1,5.860700086E-2,7.555799931E-2,-4.618709981E-1
5.803499200E-1,9.833999723E-2,5.703200027E-2,-2.891080081E-1
5.852809970E-1,1.325079948E-1,4.521000199E-3,-8.355599642E-2
5.902121480E-1,1.353770047E-1,-6.990499794E-2,1.477209926E-1
5.951434660E-1,1.549800038E-1,-1.057789996E-1,2.640489936E-1
6.000745450E-1,1.630440056E-1,-1.583929956E-1,3.589740098E-1
6.050056970E-1,1.644330025E-1,-1.642919928E-1,4.208979905E-1
6.099367560E-1,2.038609982E-1,-1.455920041E-1,4.929189980E-1
6.148680620E-1,2.009540051E-1,-1.570959985E-1,5.129060149E-1
6.197991260E-1,1.823049933E-1,-1.493429989E-1,4.763669968E-1
6.247302780E-1,1.624380052E-1,-1.367249936E-1,4.120529890E-1
6.296613280E-1,1.911389977E-1,-1.378560066E-1,3.268760145E-1
6.345926340E-1,2.207520008E-1,-1.096910015E-1,2.735700011E-1
6.395237130E-1,1.972569972E-1,-5.935499817E-2,2.116159946E-1
6.444547850E-1,1.920849979E-1,-1.550900005E-2,1.002110019E-1
6.493859370E-1,1.620319933E-1,3.180399910E-2,-1.290600002E-2
6.543170160E-1,1.214630008E-1,2.900500037E-2,-1.425320059E-1
6.592483260E-1,7.064300030E-2,-4.843600094E-2,-2.891550064E-1
6.641794820E-1,7.487100363E-2,-4.326200113E-2,-3.571290076E-1
6.691105590E-1,9.548500180E-2,-6.941600144E-2,-4.306119978E-1
6.740416210E-1,7.072799653E-2,-1.091869995E-1,-4.307650030E-1
6.789729270E-1,6.895600259E-2,-1.317220032E-1,-4.103929996E-1
6.839040060E-1,3.060300089E-2,-1.063539982E-1,-3.046489954E-1
6.888351630E-1,-8.613999933E-3,-9.754899889E-2,-1.710720062E-1
6.937664700E-1,-2.769899927E-2,-9.837400168E-2,-6.235700101E-2
6.986975490E-1,-8.118999749E-2,-5.042200163E-2,1.484099962E-2
7.036286360E-1,-1.777790040E-1,-8.763000369E-3,7.029099762E-2
7.085597880E-1,-2.039189935E-1,5.223499984E-2,1.254699975E-1
7.134910960E-1,-2.283679992E-1,1.252830029E-1,1.417630017E-1
7.184221800E-1,-2.490539998E-1,1.814520061E-1,1.268260032E-1
7.233533310E-1,-2.489269972E-1,2.537310123E-1,5.691900104E-2
7.282844100E-1,-2.512449920E-1,2.966380119E-1,1.357400045E-2
7.332154820E-1,-2.627829909E-1,3.081650138E-1,-3.435999900E-2
7.381467880E-1,-2.377820015E-1,3.807510138E-1,-9.856399894E-2
7.430778670E-1,-2.426259965E-1,3.854370117E-1,-1.933770031E-1
7.480090140E-1,-2.837759852E-1,3.823359907E-1,-2.900049984E-1
7.529400930E-1,-3.048749864E-1,3.909069896E-1,-3.818219900E-1
7.578713930E-1,-2.768389881E-1,3.984000087E-1,-4.371969998E-1
7.628024720E-1,-2.268099934E-1,3.580670059E-1,-4.541819990E-1
7.677336240E-1,-2.397750020E-1,3.388540149E-1,-5.425699949E-1
7.726649420E-1,-2.417300045E-1,2.914449871E-1,-6.499670148E-1
7.775960210E-1,-1.893769950E-1,2.256509960E-1,-6.276729703E-1
7.825270980E-1,-2.154159993E-1,1.759340018E-1,-6.463689804E-1
7.874582450E-1,-1.443209946E-1,1.190660000E-1,-5.102030039E-1
7.923895520E-1,-1.017460003E-1,4.833199829E-2,-2.889209986E-1
7.973206310E-1,-4.821899906E-2,-7.641100138E-2,-6.666199863E-2
8.022516980E-1,8.851599693E-2,-1.693049967E-1,2.401310056E-1
8.071828500E-1,2.020179927E-1,-2.900939882E-1,6.791719794E-1
8.121139290E-1,1.802310050E-1,-3.754110038E-1,8.582609892E-1
8.170452210E-1,2.072480023E-1,-4.637700021E-1,8.971819878E-1
8.219763000E-1,1.811289936E-1,-4.437800050E-1,8.299769759E-1
8.269074520E-1,1.456979960E-1,-4.065549970E-1,7.023509741E-1
8.318385440E-1,1.212230027E-1,-2.952600121E-1,4.668059945E-1
8.367698500E-1,1.422940046E-1,-1.721570045E-1,2.241140008E-1
8.417010060E-1,1.788170040E-1,-4.197999835E-2,1.994800009E-2
8.466320830E-1,1.441770047E-1,7.381299883E-2,-2.890639901E-1
8.515631600E-1,-2.360000042E-3,2.113330066E-1,-6.332049966E-1
8.564944660E-1,-5.946400017E-2,3.165850043E-1,-7.660890222E-1
8.614255790E-1,-3.763600066E-2,3.596499860E-1,-6.737279892E-1
8.663567300E-1,-1.393519938E-1,4.212029874E-1,-6.407729983E-1
8.712878090E-1,-2.186380029E-1,4.463280141E-1,-5.140389800E-1
8.762191200E-1,-2.521579862E-1,4.393590093E-1,-3.701429963E-1
8.811501990E-1,-5.337089896E-1,5.087940097E-1,-4.550589919E-1
8.860815820E-1,-8.196960092E-1,6.347320080E-1,-6.583549976E-1
8.910124340E-1,-9.471499920E-1,7.716689706E-1,-9.585189819E-1
8.959437390E-1,-9.191859961E-1,8.180339932E-1,-1.130823970E0
9.008748180E-1,-8.248400092E-1,8.558459878E-1,-1.237668991E0
9.058059850E-1,-7.221369743E-1,8.620820045E-1,-1.262462974E0
9.107370640E-1,-5.625650287E-1,7.925660014E-1,-1.191203952E0
9.156683700E-1,-3.968139887E-1,7.135670185E-1,-9.038280249E-1
9.205995260E-1,-2.278109938E-1,5.325350165E-1,-6.187419891E-1
9.255306030E-1,6.566300243E-2,1.301120073E-1,-6.499850154E-1
9.304619080E-1,2.246129960E-1,-1.796569973E-1,-1.957879961E-1
9.353930010E-1,5.610160232E-1,-3.516309857E-1,7.793769836E-1
9.403241530E-1,8.547480106E-1,-5.230039954E-1,1.554432034E0
9.452552320E-1,1.043326020E0,-7.565060258E-1,1.911383986E0
9.501865770E-1,1.059846044E0,-8.993070126E-1,2.054038048E0
9.551176560E-1,9.998350143E-1,-8.060879707E-1,1.966230035E0
9.600488080E-1,1.031479001E0,-5.590419769E-1,1.897634029E0
9.649801140E-1,9.997019768E-1,-3.962000012E-1,1.824898005E0
9.699111930E-1,9.318580031E-1,-2.638159990E-1,1.700678945E0
9.748423450E-1,7.930849791E-1,-1.677320004E-1,1.532524943E0
9.797734250E-1,7.041890025E-1,-1.326290071E-1,1.402037024E0
9.847047310E-1,6.537370086E-1,-1.497219950E-1,1.333196998E0
9.896358050E-1,5.980089903E-1,-2.267760038E-1,1.323462963E0
9.945669570E-1,4.761860073E-1,-2.587899864E-1,1.233762026E0
9.994980360E-1,4.403769970E-1,-2.124989927E-1,1.111744046E0
1.004429326E0,4.216180146E-1,-6.166499853E-2,9.068700075E-1
1.009360405E0,4.037260115E-1,7.619000040E-3,7.744359970E-1
1.014291562E0,4.946680069E-1,-1.401999965E-2,7.933620214E-1
1.019222641E0,4.641279876E-1,-1.209969968E-1,7.623760104E-1
1.024153947E0,5.186449885E-1,-3.311209977E-1,7.867190242E-1
1.029085040E0,5.587469935E-1,-4.578619897E-1,7.441920042E-1
1.034016191E0,4.934099913E-1,-6.340929866E-1,6.850540042E-1
1.038947499E0,5.412819982E-1,-8.419719934E-1,6.212599874E-1
1.043878578E0,6.678640246E-1,-9.594540000E-1,3.663139939E-1
1.048809730E0,7.684699893E-1,-9.952110052E-1,1.690330058E-1
1.053740809E0,8.266639709E-1,-1.008371949E0,-4.715999961E-2
1.058672120E0,8.457260132E-1,-1.000797033E0,-2.415190041E-1
1.063603199E0,8.827499747E-1,-9.994459748E-1,-3.906030059E-1
1.068534350E0,8.889790177E-1,-1.000579953E0,-4.867449999E-1
1.073465434E0,8.292989731E-1,-9.826110005E-1,-3.742859960E-1
1.078396740E0,7.747169733E-1,-9.458839893E-1,-3.167099878E-2
1.083327819E0,6.785299778E-1,-8.692290187E-1,1.867450029E-1
1.088258952E0,4.812389910E-1,-7.366830111E-1,3.575490117E-1
1.093190260E0,3.022310138E-1,-5.513899922E-1,5.453460217E-1
1.098121338E0,1.628530025E-1,-3.638989925E-1,6.998320222E-1
1.103052490E0,6.055099890E-2,-2.055969983E-1,8.377500176E-1
1.107983569E0,1.435600035E-2,-1.951700076E-2,9.782080054E-1
1.112914875E0,-1.868000068E-2,2.076119930E-1,1.075603008E0
1.117846016E0,-7.590799779E-2,3.728969991E-1,1.031772971E0
1.122777321E0,-1.420039982E-1,4.170019925E-1,9.401550293E-1
1.127708400E0,-1.902070045E-1,4.710879922E-1,8.557779789E-1
1.132639477E0,-1.919929981E-1,5.059589744E-1,7.761989832E-1
1.137570629E0,-1.577039957E-1,4.786199927E-1,6.894419789E-1
1.142501962E0,-6.216000021E-2,5.171070099E-1,6.575719714E-1
1.147433041E0,-8.690200001E-2,5.282509923E-1,7.189350128E-1
1.152364118E0,-1.156829968E-1,5.592629910E-1,8.470510244E-1
1.157295251E0,-2.399069965E-1,5.234839916E-1,1.056206942E0
1.162226330E0,-3.694129884E-1,3.771390021E-1,1.224149942E0
1.167157635E0,-3.978910148E-1,1.276589930E-1,1.334054947E0
1.172088752E0,-3.516629934E-1,-5.823399872E-2,1.550873041E0
1.177019829E0,-3.146170080E-1,-2.263630033E-1,1.613404989E0
1.181951135E0,-2.593410015E-1,-3.673450053E-1,1.533491969E0
1.186882296E0,-1.544950008E-1,-5.237179995E-1,1.375854969E0
1.191813373E0,2.678599954E-2,-6.829929948E-1,1.150174975E0
1.196744678E0,2.259050012E-1,-7.873150110E-1,8.925330043E-1
1.201675771E0,4.198609889E-1,-8.336589932E-1,5.528209805E-1
1.206606923E0,5.600929856E-1,-8.831830025E-1,2.055449933E-1
1.211538231E0,6.201390028E-1,-9.087079763E-1,-7.960999757E-2
1.216469310E0,6.544899940E-1,-8.953710198E-1,-3.575350046E-1
1.221400462E0,7.019990087E-1,-8.189640045E-1,-6.113960147E-1
1.226331532E0,8.053240180E-1,-7.529439926E-1,-7.884600163E-1
1.231262837E0,9.282649755E-1,-6.987289786E-1,-8.934410214E-1
1.236193916E0,1.051233053E0,-6.156830192E-1,-9.287549853E-1
1.241125068E0,1.031548023E0,-4.847309887E-1,-1.004513979E0
1.246056376E0,9.583190084E-1,-3.796780109E-1,-1.029682994E0
1.250987455E0,8.579729795E-1,-2.290450037E-1,-9.971079826E-1
1.255918607E0,6.173650026E-1,-8.570300043E-2,-8.516700268E-1
1.260849914E0,3.848249912E-1,-2.336199954E-2,-6.579920053E-1
1.265781012E0,1.678230017E-1,-1.572600007E-2,-4.304429889E-1
1.270712164E0,-8.519899845E-2,-4.408600181E-2,-2.240680009E-1
1.275643243E0,-3.347400129E-1,-1.088469997E-1,1.624000072E-2
1.280574534E0,-5.182809830E-1,-1.560419947E-1,2.713269889E-1
1.285505613E0,-5.659409761E-1,-1.676349938E-1,4.453429878E-1
1.290436759E0,-5.966320038E-1,-2.205010056E-1,5.885509849E-1
1.295368067E0,-4.834119976E-1,-2.220750004E-1,6.003220081E-1
1.300299146E0,-2.994009852E-1,-2.321880013E-1,4.878239930E-1
1.305230313E0,-1.432249993E-1,-2.313310057E-1,2.654690146E-1
1.310161621E0,-1.309399959E-2,-2.329999954E-1,6.975200027E-2
1.315092776E0,2.979899943E-2,-2.219299972E-1,-1.111999974E-1
1.320023848E0,-5.601799861E-2,-2.045049965E-1,-3.107869923E-1
1.324954925E0,-1.080650017E-1,-2.203020006E-1,-4.763570130E-1
1.329886231E0,-1.738969982E-1,-1.638139933E-1,-6.390140057E-1
1.334817387E0,-2.057999969E-1,-1.036019996E-1,-8.682360053E-1
1.339748693E0,-2.091909945E-1,-9.583099931E-2,-1.032456040E0
1.344679541E0,-2.824020088E-1,-7.260899991E-2,-1.122187972E0
1.349610827E0,-3.551090062E-1,-5.012900010E-2,-1.171154976E0
1.354541983E0,-4.240599871E-1,-3.516000137E-2,-1.146057963E0
1.359473289E0,-4.446910024E-1,-3.734000027E-3,-1.262534976E0
1.364404343E0,-4.760339856E-1,8.717999794E-3,-1.415279984E0
1.369335495E0,-5.222309828E-1,9.703000076E-3,-1.503774047E0
1.374266574E0,-5.234180093E-1,-2.198600024E-2,-1.623868942E0
1.379197869E0,-4.513829947E-1,-1.948300004E-2,-1.691848040E0
1.384129025E0,-3.108510077E-1,-2.706200071E-2,-1.702499986E0
1.389060116E0,-6.309600174E-2,-8.159000427E-3,-1.685338974E0
1.393991422E0,2.103870064E-1,2.737499960E-2,-1.630777001E0
1.398922578E0,5.026130080E-1,9.803599864E-2,-1.505205035E0
1.403853655E0,7.431939840E-1,1.703640074E-1,-1.337211013E0
1.408784960E0,8.933519721E-1,2.561019957E-1,-1.241521001E0
1.413716116E0,9.574249983E-1,3.106850088E-1,-1.227612019E0
1.418647179E0,9.433310032E-1,3.515630066E-1,-1.156221032E0
1.423578485E0,8.709740043E-1,3.840340078E-1,-9.868909717E-1
1.428509641E0,7.720199823E-1,4.175739884E-1,-8.177210093E-1
1.433440718E0,4.953489900E-1,2.194589972E-1,-6.414980292E-1
1.438372023E0,2.510080040E-1,1.898800023E-2,-3.983019888E-1
1.443303112E0,3.035699949E-2,2.636000048E-3,-1.215040013E-1
1.448234264E0,-1.892549992E-1,-3.021999961E-3,1.338800043E-1
1.453165572E0,-3.610079885E-1,-2.773500048E-2,3.224039972E-1
1.458096651E0,-4.707869887E-1,8.306000382E-3,4.657079875E-1
1.463027803E0,-5.447270274E-1,1.326300018E-2,6.907380223E-1
1.467959105E0,-5.916659832E-1,5.019399896E-2,8.203920126E-1
1.472890184E0,-5.726730227E-1,1.034850031E-1,9.073690176E-1
1.477821336E0,-4.864540100E-1,1.414629966E-1,8.774660230E-1
1.482752400E0,-4.000180066E-1,2.065459937E-1,9.103040099E-1
1.487683706E0,-2.759020030E-1,2.550489902E-1,1.039422035E0
1.492614862E0,-1.568520069E-1,2.534030080E-1,1.149858952E0
1.497545934E0,-1.028830037E-1,2.752020061E-1,1.191308975E0
1.502477239E0,-8.855800331E-2,3.173699975E-1,1.225965977E0
1.507408400E0,-1.128680035E-1,3.345980048E-1,1.251363993E0
1.512339477E0,-1.328630000E-1,3.889699876E-1,1.360754967E0
1.517270783E0,-1.224810034E-1,4.018650055E-1,1.479756951E0
1.522201833E0,2.233400010E-2,3.572100103E-1,1.567430973E0
1.527132985E0,1.539369971E-1,3.292599916E-1,1.539844990E0
1.532064292E0,2.430280000E-1,3.153379858E-1,1.415927052E0
1.536995448E0,2.689700127E-1,2.902820110E-1,1.246170044E0
1.541926525E0,2.570939958E-1,2.599380016E-1,1.042642951E0
1.546857593E0,2.565799952E-1,2.133219987E-1,8.174160123E-1
1.551788899E0,2.496010065E-1,2.219849974E-1,6.184729934E-1
1.556720055E0,2.582989931E-1,1.727650017E-1,5.200790167E-1
1.561651365E0,2.051479965E-1,1.354620010E-1,5.271180272E-1
1.566582521E0,1.753090024E-1,1.126409993E-1,5.581150055E-1
1.571513598E0,2.127680033E-1,9.226500243E-2,4.765079916E-1
1.576444914E0,1.969439983E-1,6.742300093E-2,2.704150081E-1
1.581375993E0,1.439480036E-1,1.264000032E-2,6.963000167E-3
1.586307150E0,-1.233400032E-2,-1.695230007E-1,-1.557029933E-1
1.591238457E0,-2.422049940E-1,-4.829359949E-1,-2.964969873E-1
1.596169536E0,-3.642950058E-1,-6.432110071E-1,-2.741349936E-1
1.601100688E0,-3.387550116E-1,-6.016659737E-1,-2.802619934E-1
1.606031996E0,-2.490330040E-1,-6.432189941E-1,-4.660300016E-1
1.610963075E0,-1.608330011E-1,-6.158360243E-1,-4.054589868E-1
1.615894222E0,-1.445029974E-1,-5.158680081E-1,-4.313960075E-1
1.620825301E0,-3.622010052E-1,-5.395460129E-1,-5.842580199E-1
1.625756606E0,-6.791149974E-1,-4.357190132E-1,-5.930510163E-1
1.630687762E0,-9.485890269E-1,-3.199079931E-1,-6.371120214E-1
1.635619068E0,-9.539520144E-1,-1.879809946E-1,-5.538020134E-1
1.640550147E0,-8.866819739E-1,-1.130369976E-1,-4.246880114E-1
1.645481299E0,-8.106949925E-1,-7.266300172E-2,-2.450910062E-1
1.650412378E0,-8.174660206E-1,-5.749800056E-2,-5.871900171E-2
1.655343683E0,-7.985820174E-1,-8.285100013E-2,7.276300341E-2
1.660274839E0,-7.501659989E-1,-1.271100044E-1,8.226600289E-2
1.665205911E0,-7.228180170E-1,-1.497389972E-1,3.442199901E-2
1.670137217E0,-6.237909794E-1,-2.244720012E-1,-4.447799921E-2
1.675068373E0,-5.668979883E-1,-2.797189951E-1,-1.447319984E-1
1.679999440E0,-4.589779973E-1,-3.296529949E-1,-2.591570020E-1
1.684930745E0,-3.574630022E-1,-3.364939988E-1,-3.541899920E-1
1.689861901E0,-2.889010012E-1,-2.886750102E-1,-4.322299957E-1
1.694792959E0,-2.533740103E-1,-2.414039969E-1,-5.028330088E-1
1.699724265E0,-2.013729960E-1,-2.346989959E-1,-5.445129871E-1
1.704655416E0,-1.724029928E-1,-2.062319964E-1,-4.520399868E-1
1.709586493E0,-2.121469975E-1,-1.348830014E-1,-3.475340009E-1
1.714517798E0,-2.560729980E-1,-3.764599934E-2,-2.142419964E-1
1.719448964E0,-2.709890008E-1,9.451299906E-2,-2.587799914E-2
1.724380041E0,-2.953769863E-1,2.112880051E-1,1.313450038E-1
1.729311347E0,-3.245289922E-1,3.121950030E-1,3.364199996E-1
1.734242513E0,-3.203110099E-1,3.946529925E-1,5.486050248E-1
1.739173818E0,-3.058739901E-1,4.247860014E-1,6.913729906E-1
1.744104882E0,-2.616139948E-1,4.189589918E-1,8.365920186E-1
1.749035959E0,-2.321839929E-1,3.792139888E-1,9.556180239E-1
1.753967111E0,-2.026769966E-1,3.005439937E-1,1.048511982E0
1.758898419E0,-1.421139985E-1,2.375220060E-1,1.079298973E0
1.763829575E0,-2.212600037E-2,2.065930068E-1,1.038318992E0
1.768760652E0,1.067859977E-1,1.410409957E-1,9.542750120E-1
1.773691967E0,1.851339936E-1,7.692900300E-2,8.822780252E-1
1.778623046E0,2.649640143E-1,-1.882199943E-2,8.246510029E-1
1.783554182E0,2.886700034E-1,-6.521999836E-2,7.382379770E-1
1.788485490E0,2.510269880E-1,-1.003779992E-1,6.732500196E-1
1.793416646E0,1.876049936E-1,-9.338700026E-2,6.343960166E-1
1.798347723E0,1.247000024E-1,-8.745700121E-2,6.431890130E-1
1.803279028E0,-8.844000287E-3,-5.897200108E-2,6.302539706E-1
1.808210184E0,-1.007210016E-1,-6.042199954E-2,6.003469825E-1
1.813141256E0,-1.201229990E-1,-3.498400003E-2,6.131970286E-1
1.818072562E0,-1.572880000E-1,-1.850900054E-2,5.994690061E-1
1.823003713E0,-2.019799948E-1,7.639999967E-3,6.214500070E-1
1.827935018E0,-2.533439994E-1,2.893999964E-2,6.241610050E-1
1.832866097E0,-2.968240082E-1,4.058200121E-2,6.267690063E-1
1.837797245E0,-3.084160089E-1,5.904699862E-2,5.765609741E-1
1.842728553E0,-3.335649967E-1,6.762699783E-2,5.908499956E-1
1.847659632E0,-3.603929877E-1,9.935799986E-2,6.528009772E-1
1.852590779E0,-3.868130147E-1,1.065720022E-1,6.905450225E-1
1.857522086E0,-4.062039852E-1,1.702049971E-1,7.278789878E-1
1.862453155E0,-4.096879959E-1,2.161300033E-1,7.503299713E-1
1.867384307E0,-4.236429930E-1,2.258059978E-1,7.723270059E-1
1.872315615E0,-4.072130024E-1,2.233449966E-1,7.819399834E-1
1.877246699E0,-3.718560040E-1,2.257220000E-1,7.385730147E-1
1.882177851E0,-2.957819998E-1,2.045940012E-1,7.069569826E-1
1.887108949E0,-2.095140070E-1,2.386289984E-1,6.344789863E-1
1.892040254E0,-1.314789951E-1,2.512420118E-1,5.811169744E-1
1.896971410E0,5.628000014E-3,2.900229990E-1,5.468940139E-1
1.901902730E0,6.619899720E-2,2.956140041E-1,4.242680073E-1
1.906833886E0,6.737300009E-2,2.921470106E-1,3.450259864E-1
1.911764963E0,8.035500348E-2,3.081920147E-1,2.923110127E-1
1.916696036E0,9.976699948E-2,3.345069885E-1,2.014330029E-1
1.921627341E0,1.250459999E-1,3.238750100E-1,9.393899888E-2
1.926558497E0,1.700280011E-1,3.407480121E-1,-1.110900007E-2
1.931489788E0,2.106540054E-1,3.732689917E-1,-1.280779988E-1
1.936420867E0,2.394739985E-1,4.097639918E-1,-2.043019980E-1
1.941352019E0,2.449129969E-1,4.361349940E-1,-3.282650113E-1
1.946283326E0,2.416779995E-1,4.787600040E-1,-4.256739914E-1
1.951214482E0,2.485049963E-1,5.543760061E-1,-4.965969920E-1
1.956145812E0,1.892269999E-1,6.202949882E-1,-5.552809834E-1
1.961076891E0,1.447679996E-1,6.720799804E-1,-6.017730236E-1
1.966007968E0,1.265130043E-1,7.240340114E-1,-6.122400165E-1
1.970939345E0,1.551389992E-1,7.834450006E-1,-6.538810134E-1
1.975870424E0,1.991399974E-1,7.934499979E-1,-6.956040263E-1
1.980801554E0,2.485579997E-1,7.663850188E-1,-7.015540004E-1
1.985732631E0,3.124000132E-1,7.499060035E-1,-6.718760133E-1
1.990663937E0,3.735719919E-1,7.034969926E-1,-6.688839793E-1
1.995595103E0,4.366390109E-1,6.535450220E-1,-6.064469814E-1
2.000526408E0,4.868009984E-1,6.565060019E-1,-5.038729906E-1
2.005457487E0,5.525329709E-1,6.381030083E-1,-4.689640105E-1
2.010388643E0,6.078929901E-1,6.077950001E-1,-4.537720084E-1
2.015319951E0,6.465979815E-1,6.315519810E-1,-4.055019915E-1
2.020251030E0,6.410089731E-1,6.279609799E-1,-4.125240147E-1
2.025182182E0,6.158329844E-1,6.516759992E-1,-4.148530066E-1
2.030113489E0,5.622699857E-1,6.692150235E-1,-3.620469868E-1
2.035044650E0,5.115330219E-1,7.019450068E-1,-3.498570025E-1
2.039975727E0,4.988850057E-1,7.235019803E-1,-3.688189983E-1
2.044907033E0,4.718430042E-1,7.746589780E-1,-3.853549957E-1
2.049838117E0,4.519189894E-1,7.913439870E-1,-4.353559911E-1
2.054769269E0,4.982970059E-1,8.239420056E-1,-4.590759873E-1
2.059700571E0,5.013369918E-1,8.535389900E-1,-4.899300039E-1
2.064631650E0,4.874069989E-1,8.852729797E-1,-4.991660118E-1
2.069562802E0,5.326179862E-1,9.122509956E-1,-5.132009983E-1
2.074494120E0,5.890550017E-1,9.111620188E-1,-5.200600028E-1
2.079425276E0,6.522369981E-1,9.323019981E-1,-5.412420034E-1
2.084356353E0,6.961039901E-1,9.425929785E-1,-5.814830065E-1
2.089287643E0,7.516099811E-1,9.281539917E-1,-6.192759871E-1
2.094218799E0,8.020520210E-1,8.944590092E-1,-6.498289704E-1
2.099149852E0,8.618149757E-1,8.777070045E-1,-6.779479980E-1
2.104081158E0,8.760769963E-1,8.402100205E-1,-7.610710263E-1
2.109012314E0,8.998309970E-1,8.109840155E-1,-7.962779999E-1
2.113943386E0,8.711180091E-1,7.473419905E-1,-8.002960086E-1
2.118874691E0,8.397300243E-1,6.986979842E-1,-7.911859751E-1
2.123805847E0,7.849889994E-1,6.521080136E-1,-7.364540100E-1
2.128736953E0,7.748090029E-1,5.769010186E-1,-6.268020272E-1
2.133668259E0,7.166759968E-1,5.225080252E-1,-4.884270132E-1
2.138599415E0,6.791399717E-1,4.764780104E-1,-3.310480118E-1
2.143530492E0,6.357730031E-1,4.380249977E-1,-1.211529970E-1
2.148461797E0,5.305650234E-1,4.322299957E-1,-2.146000043E-3
2.153392958E0,4.988000095E-1,4.531860054E-1,1.550820023E-1
2.158324264E0,4.410000145E-1,4.763289988E-1,3.052189946E-1
2.163255420E0,4.190919995E-1,4.822210073E-1,4.266679883E-1
2.168186487E0,4.515370131E-1,4.122369885E-1,5.408599973E-1
2.173117792E0,5.517410040E-1,2.979789972E-1,6.117429733E-1
2.178048963E0,6.413159966E-1,1.214940026E-1,6.609659791E-1
2.182980269E0,7.650949955E-1,-9.706400335E-2,6.621040106E-1
2.187911348E0,8.826649785E-1,-2.886370122E-1,6.487429738E-1
2.192842500E0,9.543629885E-1,-4.768610001E-1,5.947179794E-1
2.197773579E0,9.271410108E-1,-6.029450297E-1,5.841249824E-1
2.202704884E0,8.852249980E-1,-6.820690036E-1,5.667390227E-1
2.207636050E0,8.009790182E-1,-6.773200035E-1,5.474780202E-1
2.212567356E0,6.328909993E-1,-6.420890093E-1,5.696219802E-1
2.217498440E0,3.942849934E-1,-5.560430288E-1,5.973920226E-1
2.222429592E0,1.685470045E-1,-4.649699926E-1,6.714059711E-1
2.227360899E0,-5.444300175E-2,-3.388580084E-1,7.293130159E-1
2.232292065E0,-2.775189877E-1,-2.140070051E-1,7.758259773E-1
2.237223142E0,-4.283109903E-1,-1.357290000E-1,8.130959868E-1
2.242154448E0,-5.235819817E-1,-9.116300195E-2,8.318799734E-1
2.247085522E0,-5.562700033E-1,-7.856900245E-2,7.932209969E-1
2.252016674E0,-4.946410060E-1,-6.305699795E-2,7.536709905E-1
2.256947976E0,-4.188120067E-1,-9.127599746E-2,6.682450175E-1
2.261879055E0,-3.453820050E-1,-1.271950006E-1,6.040120125E-1
2.266810207E0,-2.344619930E-1,-1.752370000E-1,5.369160175E-1
2.271741520E0,-8.403500170E-2,-2.253389955E-1,3.759520054E-1
2.276672676E0,1.341400016E-2,-2.791590095E-1,2.313880026E-1
2.281603753E0,9.179200232E-2,-3.287389874E-1,1.009019986E-1
2.286535058E0,1.565510035E-1,-3.637860119E-1,-5.850100145E-2
2.291466214E0,2.129119933E-1,-3.530350029E-1,-2.323980033E-1
2.296397300E0,1.790049970E-1,-3.530049920E-1,-3.582710028E-1
2.301328606E0,1.621239930E-1,-3.344529867E-1,-4.146449864E-1
2.306259762E0,7.980100065E-2,-2.877529860E-1,-4.947240055E-1
2.311190844E0,3.183000023E-3,-2.530980110E-1,-4.765020013E-1
2.316122149E0,-3.296700120E-2,-2.275290042E-1,-4.415400028E-1
2.321053305E0,-9.789799899E-2,-2.132039964E-1,-3.946070075E-1
2.325984382E0,-1.298490018E-1,-2.029480040E-1,-3.621099889E-1
2.330915765E0,-1.523939967E-1,-1.758839935E-1,-3.104700148E-1
2.335846830E0,-1.510639936E-1,-1.634449959E-1,-2.109470069E-1
2.340778135E0,-1.354040056E-1,-1.775709987E-1,-9.226399660E-2
2.345709291E0,-6.555200368E-2,-2.185499966E-1,2.632299997E-2
2.350640382E0,-2.723699994E-2,-2.444580048E-1,1.807979941E-1
2.355571688E0,3.658600152E-2,-2.584179938E-1,3.208259940E-1
2.360502844E0,8.092399687E-2,-2.777380049E-1,4.225240052E-1
2.365433911E0,6.628999859E-2,-2.792719901E-1,5.363140106E-1
2.370365216E0,6.224900112E-2,-2.685750127E-1,6.167039871E-1
2.375296387E0,1.942599937E-2,-2.178879976E-1,6.590039730E-1
2.380227693E0,-2.821600065E-2,-1.397500038E-1,6.536769867E-1
2.385158772E0,-6.869199872E-2,-7.714000344E-2,6.510030031E-1
2.390089849E0,-9.488099813E-2,-3.437900171E-2,5.791519880E-1
2.395021001E0,-1.327439994E-1,9.500000160E-4,4.884569943E-1
2.399952308E0,-1.586769968E-1,1.515199989E-2,4.507159889E-1
2.404883488E0,-1.660609990E-1,3.482399881E-2,4.155989885E-1
2.409814565E0,-1.956569999E-1,3.203799948E-2,3.663469851E-1
2.414745871E0,-1.909960061E-1,3.103199974E-2,3.100320101E-1
2.419677256E0,-1.859869957E-1,4.595600069E-2,2.825259864E-1
2.424608335E0,-1.666339934E-1,6.739400327E-2,2.119610012E-1
2.429539488E0,-1.260409951E-1,5.281699821E-2,7.435899973E-2
2.434470565E0,-9.746699780E-2,2.994999988E-3,-3.448300064E-2
2.439401871E0,1.638000016E-3,-7.911600173E-2,-1.482540071E-1
2.444333017E0,1.299079955E-1,-2.045489997E-1,-2.933929861E-1
2.449264323E0,2.674759924E-1,-3.507640064E-1,-4.245220125E-1
2.454195407E0,3.925760090E-1,-5.028610229E-1,-5.057749748E-1
2.459126558E0,4.696080089E-1,-5.900689960E-1,-5.706229806E-1
2.464057637E0,5.505269766E-1,-6.532239914E-1,-6.431040168E-1
2.468988938E0,6.163619757E-1,-6.761249900E-1,-6.441659927E-1
2.473920094E0,6.038100123E-1,-6.666830182E-1,-6.382730007E-1
2.478851400E0,5.876309872E-1,-6.487709880E-1,-6.660559773E-1
2.483782493E0,5.726979971E-1,-5.944129825E-1,-6.317160130E-1
2.488713644E0,5.313990116E-1,-5.523539782E-1,-5.632079840E-1
2.493644947E0,4.969240129E-1,-5.162259936E-1,-4.779880047E-1
2.498576026E0,4.456369877E-1,-5.145099759E-1,-3.712410033E-1
2.503507178E0,4.274609983E-1,-5.374259949E-1,-2.573719919E-1
2.508438491E0,4.183860123E-1,-5.731890202E-1,-1.100469977E-1
2.513369646E0,4.061770141E-1,-6.693760157E-1,1.802700013E-2
2.518300952E0,4.402909875E-1,-7.735120058E-1,1.531060040E-1
2.523232118E0,4.916509986E-1,-8.765199780E-1,2.568539977E-1
2.528163195E0,5.313959718E-1,-1.014454007E0,3.436329961E-1
2.533094496E0,5.764129758E-1,-1.140133977E0,3.847480118E-1
2.538025575E0,5.914459825E-1,-1.218471050E0,3.898589909E-1
2.542956726E0,6.195830107E-1,-1.302302003E0,3.613629937E-1
2.547888044E0,6.824200153E-1,-1.384611011E0,2.729389966E-1
2.552819123E0,7.133479714E-1,-1.460486054E0,2.587159872E-1
2.557750275E0,7.433469892E-1,-1.515522957E0,2.420620024E-1
2.562681558E0,7.509340048E-1,-1.589756012E0,1.870730072E-1
2.567612713E0,7.601910233E-1,-1.659042001E0,1.129269972E-1
2.572543800E0,7.902619839E-1,-1.734694958E0,1.106069982E-1
2.577475106E0,7.963489890E-1,-1.790351987E0,6.286600232E-2
2.582406185E0,8.193950057E-1,-1.818657041E0,-1.542999991E-3
2.587337327E0,8.552470207E-1,-1.810423017E0,-1.313299965E-2
2.592268635E0,8.428980112E-1,-1.789579988E0,-1.490299962E-2
2.597199790E0,8.258540034E-1,-1.765912056E0,-9.229999967E-3
2.602131125E0,7.471979856E-1,-1.727758050E0,7.335100323E-2
2.607062281E0,6.783499718E-1,-1.663745999E0,1.537770033E-1
2.611993349E0,5.903009772E-1,-1.564772964E0,1.936990023E-1
2.616924655E0,5.042780042E-1,-1.486179948E0,2.313909978E-1
2.621855811E0,4.981310070E-1,-1.414059997E0,2.356240004E-1
2.626786887E0,4.714030027E-1,-1.315384984E0,2.518900037E-1
2.631718193E0,4.500890076E-1,-1.197921038E0,2.322629988E-1
2.636649349E0,4.839049876E-1,-1.147544026E0,1.790959984E-1
2.641580421E0,4.841299951E-1,-1.092484951E0,1.115370020E-1
2.646511727E0,4.936169982E-1,-1.025845051E0,5.590499938E-2
2.651442873E0,5.309879780E-1,-9.952470064E-1,7.377999835E-3
2.656374178E0,5.626289845E-1,-1.007140994E0,-8.191800117E-2
2.661305257E0,5.810689926E-1,-9.636740088E-1,-1.832650006E-1
2.666236414E0,5.910739899E-1,-9.337360263E-1,-2.798919976E-1
2.671167493E0,6.232780218E-1,-9.189850092E-1,-4.125190079E-1
2.676098799E0,6.418430209E-1,-8.832309842E-1,-5.164830089E-1
2.681029979E0,6.609129906E-1,-8.352990150E-1,-6.157270074E-1
2.685961284E0,6.639950275E-1,-7.844030261E-1,-6.934700012E-1
2.690892445E0,6.654210091E-1,-7.609419823E-1,-7.425230145E-1
2.695823522E0,6.916080117E-1,-7.828019857E-1,-8.538590074E-1
2.700754828E0,7.044360042E-1,-7.875049710E-1,-9.029690027E-1
2.705685916E0,7.041479945E-1,-7.866960168E-1,-9.257479906E-1
2.710617068E0,7.623230219E-1,-8.107360005E-1,-9.772740006E-1
2.715548375E0,7.579780221E-1,-8.214139938E-1,-1.038336039E0
2.720479531E0,7.397750020E-1,-8.115720153E-1,-1.049031973E0
2.725410608E0,7.293930054E-1,-7.863460183E-1,-9.949880242E-1
2.730341900E0,6.533880234E-1,-7.885490060E-1,-8.737739921E-1
2.735273056E0,5.363150239E-1,-7.257109880E-1,-7.571939826E-1
2.740204133E0,4.569039941E-1,-6.724010110E-1,-6.524389982E-1
2.745135443E0,3.273339868E-1,-5.886390209E-1,-4.804790020E-1
2.750066599E0,2.170079947E-1,-5.058869720E-1,-3.729990125E-1
2.754997676E0,1.142769977E-1,-4.129230082E-1,-2.821159959E-1
2.759928958E0,2.657799982E-2,-3.669039905E-1,-2.197970003E-1
2.764860114E0,-7.207100093E-2,-2.894389927E-1,-1.357640028E-1
2.769791443E0,-1.363209933E-1,-2.547610104E-1,-7.072500139E-2
2.774722599E0,-1.829919964E-1,-2.483479977E-1,-3.665199876E-2
2.779653676E0,-2.100490034E-1,-2.441509962E-1,1.193900034E-2
2.784584991E0,-2.562200129E-1,-2.636109889E-1,2.954600006E-2
2.789516147E0,-2.792420089E-1,-2.854590118E-1,1.191029996E-1
2.794447452E0,-2.871609926E-1,-3.264630139E-1,1.848179996E-1
2.799378512E0,-3.165110052E-1,-3.415240049E-1,2.314420044E-1
2.804309664E0,-3.106519878E-1,-3.454070091E-1,3.163999915E-1
2.809240938E0,-3.062199950E-1,-3.289639950E-1,4.324570000E-1
2.814172094E0,-3.081260026E-1,-3.496539891E-1,5.149559975E-1
2.819103171E0,-2.877219915E-1,-3.220340014E-1,5.710290074E-1
2.824034476E0,-2.808099985E-1,-2.444729954E-1,6.868259907E-1
2.828965632E0,-2.727349997E-1,-2.294529974E-1,7.426289916E-1
2.833896709E0,-2.775410116E-1,-1.886900067E-1,8.294020295E-1
2.838827995E0,-2.687599957E-1,-1.654829979E-1,8.369950056E-1
2.843759151E0,-2.394070029E-1,-1.386449933E-1,8.826910257E-1
2.848690238E0,-2.298180014E-1,-1.247420013E-1,8.874980211E-1
2.853621543E0,-2.349220067E-1,-9.990499914E-2,8.370530009E-1
2.858552699E0,-2.521690130E-1,-9.728299826E-2,7.864500284E-1
2.863484029E0,-3.124299943E-1,-8.574000001E-2,7.476739883E-1
2.868415108E0,-2.657809854E-1,-7.205499709E-2,6.943839788E-1
2.873346260E0,-2.936370075E-1,-5.361900106E-2,6.266220212E-1
2.878277324E0,-2.934750021E-1,-2.296699956E-2,6.042439938E-1
2.883208629E0,-2.871229947E-1,5.830999929E-3,5.123490095E-1
2.888139766E0,-2.770799994E-1,4.614999983E-3,4.706769884E-1
2.893071072E0,-2.892279923E-1,1.415000018E-2,3.739089966E-1
2.898002151E0,-3.396230042E-1,2.244699933E-2,3.417850137E-1
2.902933303E0,-3.424310088E-1,1.064599957E-2,3.240320086E-1
2.907864610E0,-2.913269997E-1,-3.288799897E-2,3.613489866E-1
2.912795771E0,-3.125700057E-1,-6.526699662E-2,3.986870050E-1
2.917726848E0,-3.296720088E-1,-1.032560021E-1,4.288629889E-1
2.922658154E0,-3.429369926E-1,-1.588280052E-1,4.782159925E-1
2.927589324E0,-3.499160111E-1,-1.916929930E-1,5.060439706E-1
2.932520401E0,-3.525860012E-1,-1.830659956E-1,4.644789994E-1
2.937451706E0,-3.954010010E-1,-2.045740038E-1,3.655270040E-1
2.942382867E0,-4.984779954E-1,-1.515900046E-1,2.618910074E-1
2.947314173E0,-5.234550238E-1,-1.313499957E-1,1.990730017E-1
2.952245329E0,-5.896040201E-1,-1.381819993E-1,1.555510014E-1
2.957176406E0,-6.184380054E-1,-1.383180022E-1,1.169549972E-1
2.962107711E0,-6.370350122E-1,-1.124399975E-1,3.299799934E-2
2.967038881E0,-6.221680045E-1,-7.694599777E-2,-2.929399908E-2
2.971970187E0,-6.173430085E-1,-8.384100348E-2,-5.556200072E-2
2.976901266E0,-6.154379845E-1,-7.791999727E-2,-1.128579974E-1
2.981832389E0,-6.140090227E-1,-4.494199902E-2,-1.724539995E-1
2.986763696E0,-6.152219772E-1,-3.238900006E-2,-2.439350039E-1
2.991694775E0,-6.261230111E-1,2.388600074E-2,-3.057529926E-1
2.996625918E0,-6.296769977E-1,3.816900030E-2,-3.579260111E-1
3.001557226E0,-6.044849753E-1,6.296399981E-2,-4.148150086E-1
3.006488305E0,-5.580279827E-1,1.030640006E-1,-4.501059949E-1
3.011419457E0,-5.403130054E-1,1.039270014E-1,-4.518409967E-1
3.016350764E0,-5.203700066E-1,1.182269976E-1,-4.918639958E-1
3.021281924E0,-4.865590036E-1,1.294640005E-1,-4.935779870E-1
3.026213001E0,-4.411939979E-1,1.329820007E-1,-4.953120053E-1
3.031144307E0,-4.390720129E-1,1.576980054E-1,-4.873670042E-1
3.036075454E0,-4.039910138E-1,1.815319955E-1,-4.507139921E-1
3.041006531E0,-3.716759980E-1,2.303559929E-1,-3.805490136E-1
3.045937850E0,-3.910459876E-1,2.473080009E-1,-2.912580073E-1
3.050869006E0,-3.881370127E-1,2.752999961E-1,-1.852409989E-1
3.055800083E0,-4.103620052E-1,3.136659861E-1,-4.810399935E-2
3.060731394E0,-4.265139997E-1,3.338679969E-1,3.633600101E-2
3.065662550E0,-4.198339880E-1,3.663499951E-1,7.290600240E-2
3.070593856E0,-3.598940074E-1,3.754180074E-1,1.190489978E-1
3.075524924E0,-3.083660007E-1,3.823130131E-1,1.125319973E-1
3.080456076E0,-2.623800039E-1,3.632020056E-1,8.687300235E-2
3.085387408E0,-2.242819965E-1,3.702760041E-1,5.167499930E-2
3.090318487E0,-2.129970044E-1,3.445979953E-1,1.887100004E-2
3.095249639E0,-1.839510053E-1,2.985790074E-1,3.630999848E-2
3.100180938E0,-1.429519951E-1,2.561849952E-1,4.890700057E-2
3.105112016E0,-5.109100044E-2,2.104090005E-1,6.620500237E-2
3.110043168E0,5.477999803E-3,1.802120060E-1,5.708299950E-2
3.114974466E0,4.118800163E-2,1.487440020E-1,3.829900175E-2
3.119905622E0,1.127339974E-1,1.042679995E-1,3.615999967E-2
3.124836694E0,1.258910000E-1,1.175770015E-1,4.117700085E-2
3.129768000E0,1.339659989E-1,1.168610007E-1,1.179969981E-1
3.134699155E0,1.679130048E-1,1.162829995E-1,1.612830013E-1
3.139630447E0,1.804729998E-1,1.203420013E-1,2.141570002E-1
3.144561526E0,1.863639951E-1,1.098790020E-1,2.455009967E-1
3.149492669E0,1.670850068E-1,1.084519997E-1,2.385900021E-1
3.154423977E0,1.769659966E-1,8.771199733E-2,2.364860028E-1
3.159355132E0,1.426610053E-1,3.371100128E-2,2.128400058E-1
3.164286228E0,1.093230024E-1,-5.917999893E-3,1.652680039E-1
3.169217534E0,7.679100335E-2,-4.319399968E-2,1.129299998E-1
3.174148613E0,4.244000092E-2,-6.387499720E-2,9.652999789E-2
3.179079778E0,4.125300050E-2,-8.241300285E-2,8.732700348E-2
3.184011086E0,-5.923499912E-2,-7.294800133E-2,5.904699862E-2
3.188942241E0,-1.397199929E-1,-4.310800135E-2,4.284200072E-2
3.193873567E0,-1.958370060E-1,2.788800001E-2,6.988500059E-2
3.198804646E0,-2.540470064E-1,4.532400146E-2,8.742800355E-2
3.203735817E0,-2.672330141E-1,8.529999852E-2,1.266199946E-1
3.208667125E0,-3.020829856E-1,1.097299978E-1,1.778859943E-1
3.213598204E0,-3.252860010E-1,1.399160028E-1,2.053200006E-1
3.218529365E0,-3.276439905E-1,1.402599961E-1,1.993220001E-1
3.223460673E0,-3.001520038E-1,1.463419944E-1,1.862439960E-1
3.228391829E0,-2.689029872E-1,1.321499944E-1,1.301520020E-1
3.233322906E0,-2.667039931E-1,1.194839999E-1,8.612400293E-2
3.238254212E0,-2.647559941E-1,1.083490029E-1,3.500699997E-2
3.243185376E0,-2.322849929E-1,1.340190023E-1,-2.075400017E-2
3.248116453E0,-2.051510066E-1,1.513720006E-1,-7.399900258E-2
3.253047759E0,-1.994799972E-1,1.280480027E-1,-1.631110013E-1
3.257978905E0,-1.586229950E-1,1.237889975E-1,-2.689529955E-1
3.262910211E0,-1.536950022E-1,8.705600351E-2,-3.485020101E-1
3.267841290E0,-1.769399941E-1,7.043299824E-2,-4.017440081E-1
3.272772427E0,-1.199830025E-1,7.403499633E-2,-4.910010099E-1
3.277703506E0,-1.390870064E-1,5.788299814E-2,-5.803779960E-1
3.282634807E0,-1.670030057E-1,3.454500064E-2,-5.885329843E-1
3.287565963E0,-1.634870023E-1,3.021300025E-2,-5.992749929E-1
3.292497269E0,-1.736550033E-1,3.759500012E-2,-5.958279967E-1
3.297428329E0,-2.396550030E-1,5.208700150E-2,-5.207229853E-1
3.302359711E0,-2.642180026E-1,4.058500007E-2,-4.793809950E-1
3.307290790E0,-3.137960136E-1,6.693000346E-2,-4.238219857E-1
3.312221944E0,-3.106749952E-1,4.084299877E-2,-3.493669927E-1
3.317153021E0,-2.701259851E-1,2.910000086E-2,-2.560180128E-1
3.322084327E0,-2.677559853E-1,5.115999840E-3,-1.509000063E-1
3.327015483E0,-2.652580142E-1,-2.668599971E-2,-6.031399965E-2
3.331946788E0,-2.909179926E-1,-8.319999906E-4,3.507500142E-2
3.336877939E0,-3.205760121E-1,-2.913600020E-2,1.088640019E-1
3.341809016E0,-3.284650147E-1,-4.048199952E-2,2.401199937E-1
3.346740332E0,-3.316189945E-1,-3.548200056E-2,3.331199884E-1
3.351671411E0,-3.464579880E-1,-4.062899947E-2,3.759180009E-1
3.356602563E0,-3.986499906E-1,-2.285300009E-2,4.116829932E-1
3.361533874E0,-4.523929954E-1,-6.047000177E-3,4.643479884E-1
3.366464953E0,-4.487969875E-1,2.118900046E-2,4.573119879E-1
3.371396105E0,-4.383330047E-1,3.747599944E-2,4.575859904E-1
3.376327389E0,-4.010789990E-1,-1.012000022E-3,4.268470109E-1
3.381258545E0,-3.907780051E-1,-3.732100129E-2,4.176659882E-1
3.386189850E0,-3.602339923E-1,-7.834900171E-2,4.060400128E-1
3.391120924E0,-3.053750098E-1,-9.574099630E-2,4.159049988E-1
3.396052076E0,-2.779609859E-1,-1.180690005E-1,3.826420009E-1
3.400983394E0,-2.305929959E-1,-1.033599973E-1,3.518170118E-1
3.405914473E0,-2.034779936E-1,-1.107370034E-1,3.138099909E-1
3.410845625E0,-2.073889971E-1,-8.585699648E-2,2.974750102E-1
3.415776922E0,-2.130820006E-1,-6.306199729E-2,2.980070114E-1
3.420708078E0,-1.789380014E-1,-2.465900034E-2,3.225480020E-1
3.425639165E0,-1.993860006E-1,1.037300006E-2,3.088999987E-1
3.430570471E0,-1.628080010E-1,4.192100093E-2,2.594250143E-1
3.435501550E0,-1.478540003E-1,4.891699925E-2,2.147960067E-1
3.440432692E0,-1.233540028E-1,5.070000142E-2,1.582430005E-1
3.445363999E0,-8.228600025E-2,4.509700090E-2,1.400139928E-1
3.450295155E0,-5.058399960E-2,1.590400003E-2,1.145879999E-1
3.455226242E0,-9.565999731E-3,-2.224799991E-2,1.297969967E-1
3.460157548E0,2.863899991E-2,-4.096199945E-2,1.114400029E-1
3.465088704E0,3.799099848E-2,-7.100100070E-2,1.097749993E-1
3.470019811E0,8.480799943E-2,-6.748300046E-2,1.032780036E-1
3.474951116E0,1.072269976E-1,-8.039099723E-2,8.235800266E-2
3.479882257E0,1.224050000E-1,-3.898400068E-2,5.672699958E-2
3.484813334E0,1.258849949E-1,-3.834300116E-2,5.027800053E-2
3.489744640E0,1.272930056E-1,-2.599699982E-2,3.190499917E-2
3.494675791E0,1.358930022E-1,-1.158399973E-2,3.033499978E-2
3.499607096E0,1.046100035E-1,-2.378999954E-3,9.703000076E-3
3.504538175E0,9.771099687E-2,1.815400086E-2,-2.998100035E-2
3.509469332E0,9.808299690E-2,1.934199966E-2,-6.244999915E-2
3.514400640E0,8.903399855E-2,4.120000172E-3,-1.188820004E-1
3.519331733E0,8.284199983E-2,1.506999973E-2,-1.417409927E-1
3.524262885E0,9.809599817E-2,9.472000413E-3,-1.885689944E-1
3.529194192E0,7.799100131E-2,3.237000108E-2,-2.257490009E-1
3.534125281E0,9.600199759E-2,5.514099821E-2,-2.724960148E-1
3.539056433E0,1.206720024E-1,3.821999952E-2,-2.978290021E-1
3.543987741E0,1.189860031E-1,6.916700304E-2,-2.992140055E-1
3.548918883E0,1.454699934E-1,5.091499910E-2,-2.839860022E-1
3.553850188E0,1.620389968E-1,2.909200080E-2,-2.856729925E-1
3.558781271E0,1.570760012E-1,2.927899919E-2,-3.065649867E-1
3.563712423E0,1.802809983E-1,1.135499962E-2,-3.084509969E-1
3.568643731E0,2.121679932E-1,-7.389999810E-4,-2.602309883E-1
3.573574820E0,2.243980020E-1,-1.424099971E-2,-2.480659932E-1
3.578505972E0,2.547850013E-1,-2.461200021E-2,-2.744979858E-1
3.583437289E0,2.747009993E-1,-2.693800069E-2,-2.340420038E-1
3.588368445E0,2.867780030E-1,-1.209700014E-2,-1.745149940E-1
3.593299751E0,2.564390004E-1,-1.319300011E-2,-1.246199980E-1
3.598230825E0,2.358659953E-1,1.678800024E-2,-5.315700173E-2
3.603161977E0,2.388499975E-1,5.121799931E-2,1.832300052E-2
3.608093056E0,2.275370061E-1,4.332099855E-2,7.296600193E-2
3.613024341E0,2.397000045E-1,4.980299994E-2,1.251839995E-1
3.617955497E0,2.469020039E-1,6.537800282E-2,1.606899947E-1
3.622886803E0,2.468570024E-1,7.333800197E-2,2.058230042E-1
3.627817873E0,2.397660017E-1,5.043400079E-2,2.317830026E-1
3.632749025E0,2.143490016E-1,4.406299815E-2,2.578150034E-1
3.637680327E0,1.850509942E-1,3.020899929E-2,2.599889934E-1
3.642611483E0,1.893340051E-1,2.524399944E-2,2.383040041E-1
3.647542560E0,1.751980036E-1,3.828499839E-2,2.239719927E-1
3.652473885E0,1.070540026E-1,1.042100042E-2,2.098509967E-1
3.657404964E0,9.665600210E-2,8.152999915E-3,1.527319998E-1
3.662336116E0,5.566700175E-2,-1.119699981E-2,8.610600233E-2
3.667267399E0,4.313100129E-2,-2.119700052E-2,5.540300161E-2
3.672198555E0,1.142000034E-2,-3.352100030E-2,2.469399944E-2
3.677129613E0,-3.696700186E-2,-5.952600017E-2,8.275999688E-3
3.682060919E0,-6.199900061E-2,-5.207699910E-2,-2.013700083E-2
3.686992075E0,-3.796700016E-2,-3.950100020E-2,-3.428699821E-2
3.691923384E0,-5.293999985E-2,-3.148100153E-2,-4.132400081E-2
3.696854463E0,-2.878700010E-2,-5.094999820E-2,8.871999569E-3
3.701785619E0,2.902399935E-2,-5.081500113E-2,1.579600014E-2
3.706716927E0,8.020800352E-2,-2.461900003E-2,4.181199893E-2
3.711648006E0,1.207360029E-1,-1.036300045E-2,7.974199951E-2
3.716579154E0,1.070460007E-1,8.472000249E-3,1.440829933E-1
3.721510233E0,1.363960057E-1,1.761200093E-2,1.653420031E-1
3.726441538E0,1.554320008E-1,8.174999617E-3,1.839829981E-1
3.731372694E0,1.675769985E-1,1.739200018E-2,2.074979991E-1
3.736304000E0,1.435029954E-1,3.062500060E-2,2.336090058E-1
3.741235079E0,1.216659993E-1,6.428200006E-2,2.337419987E-1
3.746166222E0,1.520619988E-1,1.015100032E-1,2.435739934E-1
3.751097529E0,1.494130045E-1,1.071859971E-1,2.534840107E-1
3.756028708E0,1.307400018E-1,1.148680001E-1,2.610790133E-1
3.760960014E0,1.639419943E-1,1.499309987E-1,2.257049978E-1
3.765891093E0,1.524150074E-1,1.767819971E-1,2.359820008E-1
3.770822235E0,1.720429957E-1,1.675889939E-1,1.960040033E-1
3.775753314E0,2.077279985E-1,1.549900025E-1,1.966439933E-1
3.780684696E0,1.586000025E-1,1.048099995E-1,2.116290033E-1
3.785615986E0,1.669490039E-1,8.331699669E-2,1.643760055E-1
3.790546834E0,1.443690062E-1,4.532099888E-2,1.482239962E-1
3.795478150E0,1.380919963E-1,3.059000010E-3,1.176280007E-1
3.800409306E0,1.194529980E-1,-1.529899985E-2,7.264900208E-2
3.805340612E0,1.144040003E-1,-5.954999849E-2,3.955499828E-2
3.810271690E0,1.085370034E-1,-6.807100028E-2,1.601999998E-2
3.815202842E0,1.022839993E-1,-3.223299980E-2,-7.389000151E-3
3.820134150E0,4.402700067E-2,-2.333699912E-2,-3.547399864E-2
3.825065310E0,2.193599939E-2,1.627000049E-3,-5.149099976E-2
3.829996387E0,1.402600016E-2,6.119599938E-2,-5.537300184E-2
3.834927693E0,-3.134699911E-2,1.075690016E-1,-8.539199829E-2
3.839858848E0,-2.399799973E-2,1.128560007E-1,-1.057740003E-1
3.844789925E0,-2.814400010E-2,1.202339977E-1,-1.189040020E-1
3.849721227E0,-3.655799851E-2,1.201440021E-1,-1.415390074E-1
3.854652383E0,2.511000028E-3,1.197730005E-1,-1.833010018E-1
3.859583684E0,-8.093000390E-3,1.123640016E-1,-2.178590000E-1
3.864514762E0,2.178799920E-2,9.799599648E-2,-2.548429966E-1
3.869445914E0,2.345700003E-2,7.910600305E-2,-2.918269932E-1
3.874377002E0,4.517000169E-3,7.006199658E-2,-3.671019971E-1
3.879308385E0,2.547000069E-3,4.747999832E-2,-3.658539951E-1
3.884239464E0,3.359999973E-4,4.923500121E-2,-3.933919966E-1
3.889170780E0,-4.805000033E-3,6.949000061E-3,-4.067859948E-1
3.894101935E0,-1.781200059E-2,-2.439099923E-2,-3.892689943E-1
3.899033241E0,4.309500009E-2,-3.798700124E-2,-3.935689926E-1
3.903964392E0,9.636300057E-2,-3.889700025E-2,-4.148620069E-1
3.908895469E0,1.262000054E-1,-4.815100133E-2,-3.765619993E-1
3.913826546E0,1.651670039E-1,-5.384299904E-2,-3.264639974E-1
3.918757852E0,1.865220070E-1,-4.236900061E-2,-2.860380113E-1
3.923689007E0,1.792100072E-1,-5.425300077E-2,-2.600510120E-1
3.928620304E0,1.885460019E-1,-4.912300035E-2,-2.293100059E-1
3.933551383E0,1.953759938E-1,-4.836799949E-2,-1.914409995E-1
3.938482539E0,1.528670043E-1,-4.966999963E-2,-1.415999979E-1
3.943413847E0,1.394129992E-1,-7.189500332E-2,-1.014079973E-1
3.948344926E0,1.262100041E-1,-9.570199996E-2,-3.976299986E-2
3.953276058E0,1.038959995E-1,-9.287299961E-2,1.228700019E-2
3.958207366E0,7.740399987E-2,-9.462299943E-2,3.560699895E-2
3.963138445E0,3.288200125E-2,-1.007340029E-1,6.849399954E-2
3.968069814E0,-3.534999909E-3,-1.064660028E-1,1.109459996E-1
3.973000893E0,-2.252599970E-2,-1.095070019E-1,1.438120008E-1
3.977932046E0,-5.264199898E-2,-1.239750013E-1,1.455110013E-1
3.982863127E0,-7.958699763E-2,-1.403100044E-1,1.735080034E-1
3.987794433E0,-1.339810044E-1,-1.185280010E-1,1.920109987E-1
3.992725594E0,-1.846919954E-1,-6.407299638E-2,1.795549989E-1
3.997656900E0,-2.154269964E-1,-9.506399930E-2,2.101330012E-1
4.002587979E0,-2.102520019E-1,-9.143999964E-2,2.167229950E-1
4.007519120E0,-2.236469984E-1,-7.863400131E-2,2.664920092E-1
4.012450428E0,-1.901340038E-1,-8.039899915E-2,2.635790110E-1
4.017381584E0,-1.808589995E-1,-7.315400243E-2,3.062280118E-1
4.022312657E0,-1.617629975E-1,-8.742400259E-2,2.864229977E-1
4.027243963E0,-1.228509992E-1,-7.641299814E-2,2.810580134E-1
4.032175041E0,-8.331000060E-2,-5.275100097E-2,2.949970067E-1
4.037106192E0,-6.357599795E-2,-8.266000077E-3,2.734000087E-1
4.042037500E0,-5.924500152E-2,3.575399891E-2,2.617039979E-1
4.046968656E0,-5.732399970E-2,5.931600183E-2,2.406039983E-1
4.051899733E0,-1.850800030E-2,7.442700118E-2,2.363650054E-1
4.056831039E0,2.824999951E-2,1.069229990E-1,2.322880030E-1
4.061762191E0,5.479000136E-2,1.027619988E-1,2.162909955E-1
4.066693267E0,6.469299644E-2,1.198239997E-1,2.338670045E-1
4.071624563E0,9.730400145E-2,1.100130007E-1,2.730160058E-1
4.076555719E0,1.148279980E-1,9.944699705E-2,2.595689893E-1
4.081487025E0,1.197450012E-1,1.234769970E-1,2.630369961E-1
4.086418118E0,1.121859998E-1,1.110709980E-1,2.234710008E-1
4.091349269E0,1.135839969E-1,9.822300076E-2,2.078969926E-1
4.096280348E0,1.051160023E-1,1.039220020E-1,2.235350013E-1
4.101211629E0,7.536900043E-2,1.046259999E-1,2.152840048E-1
4.106142785E0,8.822699636E-2,1.074990034E-1,1.974859983E-1
4.111074115E0,6.779199839E-2,9.848500043E-2,1.749150008E-1
4.116005194E0,7.826600224E-2,7.319000363E-2,1.283420026E-1
4.120936345E0,9.097900242E-2,6.477700174E-2,7.218299806E-2
4.125867653E0,8.050800115E-2,7.780800015E-2,-3.067000071E-3
4.130798732E0,5.947599933E-2,6.254400313E-2,-4.718799889E-2
4.135729884E0,5.390600115E-2,4.311399907E-2,-1.057130024E-1
4.140661211E0,2.126999944E-2,5.253000185E-2,-1.737599969E-1
4.145592367E0,-2.141200006E-2,9.546499699E-2,-1.603199989E-1
4.150523439E0,-1.049999986E-2,9.856300056E-2,-1.086570024E-1
4.155454745E0,1.061599981E-2,1.094039977E-1,-3.789699823E-2
4.160385901E0,-2.188399993E-2,1.393540055E-1,-7.765999995E-3
4.165317250E0,-4.153700173E-2,1.502790004E-1,2.477999963E-2
4.170248329E0,-6.401000079E-3,1.515129954E-1,2.142699994E-2
4.175179481E0,1.416900009E-2,1.641599983E-1,-9.899999714E-4
4.180110778E0,9.773600101E-2,1.572130024E-1,-4.255000129E-2
4.185041857E0,1.537750065E-1,1.379880011E-1,-5.776099861E-2
4.189972999E0,2.790690064E-1,1.509499997E-1,-8.482299745E-2
4.194904307E0,4.158119857E-1,1.436049938E-1,-1.189839989E-1
4.199835463E0,4.878560007E-1,1.351410002E-1,-1.554349959E-1
4.204766550E0,4.839949906E-1,1.772789955E-1,-1.676450074E-1
4.209697855E0,5.318760276E-1,2.219810039E-1,-2.202800065E-1
4.214628934E0,5.621839762E-1,2.502009869E-1,-3.516370058E-1
4.219560086E0,5.237069726E-1,2.482910007E-1,-5.258460045E-1
4.224491394E0,4.516040087E-1,2.356469929E-1,-7.572479844E-1
4.229422550E0,3.083710074E-1,1.682520062E-1,-9.430429935E-1
4.234353627E0,2.587159872E-1,9.458400309E-2,-1.095330954E0
4.239284932E0,2.567729950E-1,1.518999971E-2,-1.178323984E0
4.244216083E0,1.308560073E-1,-9.058199823E-2,-1.307042956E0
4.249147389E0,-4.546400160E-2,-2.330459952E-1,-1.290215015E0
4.254078468E0,-6.052500010E-2,-3.387959898E-1,-1.242733002E0
4.259009620E0,3.237200156E-2,-4.039250016E-1,-1.138192058E0
4.263940927E0,1.620859951E-1,-3.855609894E-1,-1.162915945E0
4.268872021E0,3.073529899E-1,-3.034119904E-1,-1.206148982E0
4.273803173E0,2.400230020E-1,-3.817369938E-1,-1.251659036E0
4.278734481E0,1.805599965E-2,-5.312709808E-1,-1.210885048E0
4.283665579E0,7.035599649E-2,-7.134569883E-1,-1.213206053E0
4.288596731E0,3.748509884E-1,-1.228654981E0,-1.479693055E0
4.293528038E0,1.163732052E0,-2.302114964E0,-2.119592905E0
4.298459170E0,1.759688020E0,-2.839992046E0,-1.687446952E0
4.303390247E0,2.312074900E0,-3.116782904E0,-1.255290031E0
4.308321567E0,2.749972105E0,-3.265368938E0,-1.131939054E0
4.313252646E0,2.954279900E0,-3.222691059E0,-1.022492051E0
4.318183798E0,3.035793066E0,-3.009993076E0,-9.320319891E-1
4.323115095E0,3.027293921E0,-2.599123955E0,-8.982009888E-1
4.328046251E0,2.784668922E0,-2.072338104E0,-7.558360100E-1
4.332977557E0,2.328427076E0,-1.525724053E0,-7.106490135E-1
4.337908622E0,1.802677035E0,-1.048491001E0,-9.370650053E-1
4.342839774E0,1.315765023E0,-4.102439880E-1,-9.606140256E-1
4.347771081E0,7.916809916E-1,4.257560074E-1,-5.128639936E-1
4.352702160E0,1.407620013E-1,1.180294037E0,3.797140121E-1
4.357633312E0,-6.599329710E-1,1.694718957E0,1.305006981E0
4.362564634E0,-1.467457056E0,1.908337951E0,1.862730026E0
4.367495713E0,-2.112272978E0,1.944151998E0,1.885087967E0
4.372426865E0,-2.431586027E0,1.837759972E0,1.465355992E0
4.377358145E0,-2.522841930E0,1.662953973E0,9.056929946E-1
4.382289301E0,-2.454516888E0,1.440891981E0,4.078789949E-1
4.387220386E0,-2.298752069E0,1.231052995E0,-1.184860021E-1
4.392151463E0,-2.208739042E0,1.088356018E0,-6.037629843E-1
4.397082846E0,-2.109272957E0,9.841039777E-1,-9.092230201E-1
4.402013935E0,-2.072494030E0,9.061880112E-1,-9.683009982E-1
4.406945240E0,-2.196887016E0,8.016909957E-1,-9.252539873E-1
4.411876396E0,-2.480067968E0,7.880309820E-1,-8.071479797E-1
4.416807477E0,-2.874317884E0,8.150500059E-1,-6.627629995E-1
4.421738783E0,-3.266613960E0,9.548190236E-1,-6.414020061E-1
4.426669944E0,-3.562237978E0,1.055168033E0,-6.313970089E-1
4.431601249E0,-3.594379902E0,1.021728992E0,-5.307109952E-1
4.436532328E0,-3.315570116E0,8.415250182E-1,-3.952130079E-1
4.441463480E0,-2.657773972E0,5.087109804E-1,-2.204480022E-1
4.446394788E0,-1.810722947E0,1.798390001E-1,-8.294100314E-2
4.451325944E0,-9.443740249E-1,-7.290399820E-2,-1.066770032E-1
4.456257021E0,-1.126269996E-1,-1.800940037E-1,-7.511500269E-2
4.461188326E0,5.894100070E-1,-1.637109965E-1,-6.339000072E-3
4.466119420E0,1.099182010E0,-4.330699891E-2,7.087600231E-2
4.471050572E0,1.471642017E0,1.130869985E-1,1.519490033E-1
4.475981880E0,1.675053000E0,2.744329870E-1,2.302570045E-1
4.480913031E0,1.632521033E0,4.503619969E-1,2.203119993E-1
4.485844108E0,1.526386976E0,5.361099839E-1,1.747580022E-1
4.490775413E0,1.333317995E0,5.775560141E-1,1.463920027E-1
4.495706564E0,9.470250010E-1,6.437019706E-1,1.071600020E-1
4.500637641E0,4.828949869E-1,6.744620204E-1,6.454599649E-2
4.505568961E0,3.566600010E-2,6.790500283E-1,1.117419973E-1
4.510500117E0,-3.172970116E-1,6.261379719E-1,1.980050057E-1
4.515431422E0,-6.535149813E-1,4.773730040E-1,2.991330028E-1
4.520362501E0,-9.545189738E-1,1.923529953E-1,3.956680000E-1
4.525293653E0,-1.263597012E0,2.307300083E-2,4.785290062E-1
4.530224961E0,-1.612048030E0,1.124999952E-3,6.655589938E-1
4.535156045E0,-1.921970963E0,5.798500031E-2,8.586030006E-1
4.540087197E0,-2.082204103E0,7.796099782E-2,9.831050038E-1
4.545018523E0,-2.089118958E0,6.052400172E-2,1.060250044E0
4.549949602E0,-1.934470057E0,3.409000114E-3,1.194746971E0
4.554880754E0,-1.762467027E0,-1.716810018E-1,1.422013998E0
4.559811828E0,-1.675665021E0,-3.876740038E-1,1.665398955E0
4.564743211E0,-1.549692035E0,-4.095810056E-1,1.836812973E0
4.569674518E0,-1.364990950E0,-2.632170022E-1,1.845973969E0
4.574605569E0,-1.121073008E0,-1.351429969E-1,1.748114944E0
4.579536646E0,-7.823650241E-1,-8.404099941E-2,1.695978999E0
4.584467812E0,-4.424079955E-1,-1.085179970E-1,1.705849051E0
4.589399120E0,-1.197109967E-1,-1.453569978E-1,1.689139962E0
4.594330276E0,1.368270069E-1,-1.792210042E-1,1.646193981E0
4.599261600E0,3.168950081E-1,-6.218200177E-2,1.573179007E0
4.604192679E0,5.174999833E-1,9.552100301E-2,1.398913980E0
4.609123831E0,6.747679710E-1,2.085449994E-1,1.286345959E0
4.614054920E0,7.866960168E-1,2.282669991E-1,1.230365992E0
4.618986226E0,8.842290044E-1,2.485740036E-1,1.185251951E0
4.623917372E0,9.720069766E-1,2.982879877E-1,1.186836958E0
4.628848677E0,1.085576057E0,3.129679859E-1,1.165462971E0
4.633779756E0,1.151486993E0,3.515529931E-1,9.159539938E-1
4.638710894E0,1.050096035E0,3.633210063E-1,4.086340070E-1
4.643642202E0,8.254479766E-1,4.013740122E-1,-8.364500105E-2
4.648573281E0,5.325999856E-1,5.100489855E-1,-5.403109789E-1
4.653504447E0,1.085200012E-1,7.112290263E-1,-1.071961045E0
4.658435754E0,-5.598999858E-1,9.960179925E-1,-3.161174059E0
4.663366905E0,-1.598127961E0,1.627110958E0,-6.060673237E0
4.668297982E0,-2.039597034E0,2.076232910E0,-5.380578041E0
4.673229288E0,-1.817913055E0,1.861359954E0,-2.785197020E0
4.678160430E0,-1.160043955E0,1.336743951E0,-1.355258942E0
4.683091507E0,-2.548800111E-1,7.150679827E-1,-8.377029896E-1
4.688022812E0,2.677769959E-1,3.375450075E-1,-6.692180037E-1
4.692953891E0,2.547509968E-1,2.920469940E-1,-2.993029952E-1
4.697885043E0,9.650500119E-2,5.218189955E-1,2.791000009E-1
4.702816351E0,-8.521199971E-2,8.058959842E-1,7.141079903E-1
4.707747415E0,-2.872470021E-1,1.020828009E0,8.007850051E-1
4.712678567E0,-4.093399942E-1,1.040305018E0,5.650439858E-1
4.717609874E0,-3.806560040E-1,9.633759856E-1,2.334239930E-1
4.722540953E0,-2.045260072E-1,7.748669982E-1,-1.234000027E-1
4.727472105E0,1.468760073E-1,4.814060032E-1,-4.946640134E-1
4.732403413E0,4.961169958E-1,2.308900058E-1,-6.609110236E-1
4.737334564E0,6.582760215E-1,-4.652300104E-2,-7.080339789E-1
4.742265641E0,6.255030036E-1,-2.451979965E-1,-7.069650292E-1
4.747196932E0,4.847329855E-1,-3.013679981E-1,-6.185979843E-1
4.752128088E0,3.101139963E-1,-2.778010070E-1,-4.283719957E-1
4.757059165E0,1.300899982E-1,-1.517349929E-1,-1.407379955E-1
4.761990553E0,3.973900154E-2,-4.594200104E-2,1.652249992E-1
4.766921632E0,3.181299940E-2,3.400500119E-2,4.634700119E-1
4.771852938E0,7.151699811E-2,1.062830016E-1,6.232730150E-1
4.776784107E0,1.171059981E-1,1.202009991E-1,6.885539889E-1
4.781715184E0,1.580539942E-1,1.303849965E-1,7.271789908E-1
4.786646490E0,1.666669995E-1,1.008789986E-1,6.917219758E-1
4.791577660E0,2.525269985E-1,7.238099724E-2,6.704279780E-1
4.796508737E0,2.011879981E-1,3.547500074E-2,5.296000242E-1
4.801440042E0,1.151690036E-1,6.907100230E-2,3.623810112E-1
4.806371170E0,1.302799955E-2,1.018370017E-1,1.946019977E-1
4.811302247E0,-1.175870001E-1,1.460340023E-1,-1.714999974E-2
4.816233553E0,-2.154259980E-1,2.020449936E-1,-2.711009979E-1
4.821164680E0,-2.936170101E-1,2.629269958E-1,-5.559089780E-1
4.826095986E0,-3.320100009E-1,2.770310044E-1,-7.720119953E-1
4.831027064E0,-3.699049950E-1,2.524249852E-1,-9.201480150E-1
4.835958211E0,-3.940699995E-1,2.373539954E-1,-1.039224982E0
4.840889519E0,-4.458929896E-1,2.180009931E-1,-1.050676942E0
4.845820598E0,-4.877620041E-1,1.897370070E-1,-1.012249947E0
4.850751740E0,-5.039460063E-1,1.503619999E-1,-9.100070000E-1
4.855683048E0,-5.471900105E-1,1.094970033E-1,-7.582269907E-1
4.860614203E0,-5.617529750E-1,8.942300081E-2,-6.339849830E-1
4.865545290E0,-5.622599721E-1,4.934100062E-2,-5.428720117E-1
4.870476596E0,-5.815629959E-1,5.350200087E-2,-4.771699905E-1
4.875407752E0,-5.593580008E-1,1.582800038E-2,-4.485799968E-1
4.880338810E0,-4.951449931E-1,-3.274700046E-2,-4.279960096E-1
4.885270116E0,-4.033089876E-1,-1.136080027E-1,-3.555099964E-1
4.890201194E0,-2.822769880E-1,-2.283619940E-1,-2.363169938E-1
4.895132370E0,-1.951410025E-1,-2.495400012E-1,-2.143740058E-1
4.900063678E0,-7.710999995E-2,-2.416190058E-1,-2.559520006E-1
4.904994757E0,2.221300080E-2,-2.113700062E-1,-3.296000063E-1
4.909925899E0,1.062230021E-1,-1.297300011E-1,-4.252989888E-1
4.914857207E0,1.738280058E-1,-1.089959964E-1,-5.281699896E-1
4.919788362E0,2.239460051E-1,-6.064999849E-2,-5.011929870E-1
4.924719444E0,2.551670074E-1,-3.761000186E-2,-4.564760029E-1
4.929650750E0,2.852959931E-1,-3.298199922E-2,-4.223510027E-1
4.934581906E0,2.936320007E-1,-3.767900169E-2,-3.553850055E-1
4.939513221E0,3.360509872E-1,-7.841800153E-2,-2.218039930E-1
4.944444300E0,4.077810049E-1,-1.722770035E-1,8.134900033E-2
4.949375451E0,5.347610116E-1,-2.863729894E-1,4.175710082E-1
4.954306759E0,6.351079941E-1,-4.694040120E-1,5.785369873E-1
4.959237915E0,6.298519969E-1,-6.427410245E-1,6.241160035E-1
4.964169003E0,6.369330287E-1,-7.709109783E-1,6.286550164E-1
4.969100309E0,5.684459805E-1,-8.567789793E-1,6.018350124E-1
4.974031464E0,5.231310129E-1,-9.271299839E-1,5.796189904E-1
4.978962541E0,4.248940051E-1,-9.177169800E-1,6.170899868E-1
4.983893847E0,3.148390055E-1,-8.504779935E-1,7.525219917E-1
4.988825003E0,1.999779940E-1,-7.762939930E-1,8.732709885E-1
4.993756314E0,4.163699970E-2,-6.861029863E-1,9.145429730E-1
4.998687393E0,-9.080000222E-2,-6.065970063E-1,9.863489866E-1
5.003618470E0,-1.856070012E-1,-5.191609859E-1,1.081385016E0
5.008549606E0,-2.784779966E-1,-4.575299919E-1,1.184756994E0
5.013480914E0,-3.079650104E-1,-3.751769960E-1,1.260918975E0
5.018412070E0,-3.173440099E-1,-3.153240085E-1,1.360005021E0
5.023343391E0,-2.758120000E-1,-2.825489938E-1,1.462676048E0
5.028274470E0,-1.933510005E-1,-2.626129985E-1,1.571174026E0
5.033205635E0,-4.439499974E-2,-3.079220057E-1,1.682906985E0
5.038136943E0,4.422599822E-2,-4.181320071E-1,1.646947026E0
5.043068022E0,1.419630051E-1,-4.836049974E-1,1.513555050E0
5.047999198E0,2.077240050E-1,-5.182930231E-1,1.384966016E0
5.052930506E0,2.474469990E-1,-5.513700247E-1,1.254742980E0
5.057861571E0,2.451139987E-1,-5.496910214E-1,1.118165016E0
5.062792722E0,1.916110069E-1,-5.276129842E-1,1.008764982E0
5.067724030E0,9.920799732E-2,-4.808799922E-1,9.194110036E-1
5.072655195E0,2.695799991E-2,-3.837740123E-1,8.715950251E-1
5.077586272E0,-3.023499995E-2,-2.607220113E-1,8.415390253E-1
5.082517578E0,-1.122400016E-1,-1.483969986E-1,8.049169779E-1
5.087448662E0,-1.409489959E-1,-3.693500161E-2,7.161589861E-1
5.092379813E0,-2.026090026E-1,3.367599845E-2,5.872370005E-1
5.097311121E0,-2.429880053E-1,5.726300180E-2,5.114110112E-1
5.102242205E0,-2.389120013E-1,1.225610003E-1,4.383519888E-1
5.107173357E0,-1.745249927E-1,1.466230005E-1,3.559629917E-1
5.112104665E0,-1.411080062E-1,1.353420019E-1,3.240090013E-1
5.117035805E0,-8.902499825E-2,8.953800052E-2,2.801209986E-1
5.121966882E0,-9.115000255E-3,8.363100141E-2,1.643929929E-1
5.126898188E0,3.212999925E-2,7.286199927E-2,7.260499895E-2
5.131829368E0,1.418610066E-1,4.363000020E-2,-8.637099713E-2
5.136760674E0,2.436860055E-1,2.049100026E-2,-2.144059986E-1
5.141691753E0,3.191609979E-1,2.500700019E-2,-3.138270080E-1
5.146622909E0,3.427369893E-1,1.240000036E-2,-4.157750010E-1
5.151553988E0,3.911530077E-1,1.610000059E-2,-5.034800172E-1
5.156485371E0,3.719680011E-1,7.977999747E-3,-5.386490226E-1
5.161416450E0,3.407120109E-1,7.178999949E-3,-5.739359856E-1
5.166347756E0,2.976219952E-1,2.554100007E-2,-5.159540176E-1
5.171278835E0,2.144870013E-1,8.664300293E-2,-4.747689962E-1
5.176210000E0,1.014299989E-1,1.045489982E-1,-4.073030055E-1
5.181141308E0,1.543999999E-3,8.179000020E-2,-3.519240022E-1
5.186072464E0,-8.995799720E-2,8.968199790E-2,-3.205460012E-1
5.191003531E0,-1.684350073E-1,1.135549992E-1,-2.724590003E-1
5.195934837E0,-2.313790023E-1,8.654499799E-2,-2.723410130E-1
5.200865993E0,-2.406940013E-1,1.012580022E-1,-3.225049973E-1
5.205797069E0,-2.204139978E-1,7.888799906E-2,-3.894779980E-1
5.210728375E0,-1.752739996E-1,7.906199992E-2,-4.516830146E-1
5.215659521E0,-1.267679930E-1,3.521899879E-2,-4.756889939E-1
5.220590827E0,-1.023579985E-1,2.751599997E-2,-4.013530016E-1
5.225521906E0,-9.391199797E-2,2.630100027E-2,-3.176290095E-1
5.230453072E0,-2.402500063E-2,4.568399861E-2,-2.365610003E-1
5.235384379E0,-4.480000120E-3,7.348000258E-2,-1.604589969E-1
5.240315535E0,4.321299866E-2,9.052599967E-2,-1.492190063E-1
5.245246588E0,8.344399929E-2,9.459699690E-2,-1.549679935E-1
5.250177894E0,1.071970016E-1,9.544599801E-2,-1.848939955E-1
5.255108973E0,1.126490012E-1,8.394099772E-2,-2.079329938E-1
5.260040135E0,1.167040020E-1,7.415799797E-2,-2.551530004E-1
5.264971442E0,1.381890029E-1,1.085520014E-1,-2.689970136E-1
5.269902506E0,1.721780002E-1,9.476300329E-2,-2.807939947E-1
5.274833658E0,1.572799981E-1,6.674599648E-2,-2.714329958E-1
5.279764966E0,1.387050003E-1,9.543199837E-2,-2.048519999E-1
5.284696122E0,1.444620043E-1,1.231319979E-1,-1.337179989E-1
5.289627199E0,1.761589944E-1,1.403820068E-1,-5.809500068E-2
5.294558504E0,1.724849939E-1,1.446139961E-1,-5.451700091E-2
5.299489665E0,1.720550060E-1,1.333660036E-1,-6.549400091E-2
5.304420971E0,1.772679985E-1,1.256749928E-1,-4.790800065E-2
5.309352127E0,1.601130068E-1,1.376329958E-1,3.186000045E-3
5.314283204E0,1.656890064E-1,1.499630064E-1,5.188199878E-2
5.319214281E0,1.440339983E-1,1.505649984E-1,1.030040011E-1
5.324145586E0,1.449750066E-1,1.393769979E-1,1.756979972E-1
5.329076761E0,1.769279987E-1,1.047139987E-1,2.506999969E-1
5.334008067E0,1.517249942E-1,6.067999825E-2,3.041410148E-1
5.338939146E0,2.324820012E-1,4.224200174E-2,3.480620086E-1
5.343870284E0,2.127819955E-1,4.164399952E-2,3.467440009E-1
5.348801591E0,2.025460005E-1,2.775000036E-2,3.432700038E-1
5.353732670E0,1.899610013E-1,2.880500071E-2,3.544889987E-1
5.358663817E0,1.569470018E-1,2.386100031E-2,3.922100067E-1
5.363595202E0,1.246260032E-1,7.730999961E-3,3.536329865E-1
5.368526204E0,1.091350019E-1,-2.903999994E-3,3.440920115E-1
5.373457346E0,1.004810035E-1,1.204999979E-3,3.205330074E-1
5.378388653E0,6.193299964E-2,-1.569999964E-3,2.902239859E-1
5.383319809E0,3.519500047E-2,3.419699892E-2,2.674840093E-1
5.388251125E0,-1.199000049E-3,7.768899947E-2,2.426870018E-1
5.393182204E0,-2.330699936E-2,6.777700037E-2,2.084529996E-1
5.398113356E0,-5.744700134E-2,7.626400143E-2,1.791570038E-1
5.403044420E0,-9.147600085E-2,7.955300063E-2,1.499519944E-1
5.407975725E0,-1.092360020E-1,3.776799887E-2,8.714400232E-2
5.412906881E0,-8.992099762E-2,3.427800164E-2,6.740199775E-2
5.417838208E0,-6.004599854E-2,1.452500001E-2,4.752099887E-2
5.422769364E0,-7.618000358E-2,-9.464000352E-3,3.232299909E-2
5.427700441E0,-7.380700111E-2,-9.132999927E-3,4.577299953E-2
5.432631760E0,-9.057900310E-2,1.283999998E-2,7.837499678E-2
5.437562916E0,-9.757599980E-2,-2.832999919E-3,8.213800192E-2
5.442493993E0,-8.777999878E-2,-3.663900122E-2,1.024779975E-1
5.447425294E0,-6.122799963E-2,-2.282300033E-2,9.414999932E-2
5.452356450E0,-4.624599963E-2,-4.447700083E-2,4.745100066E-2
5.457287508E0,-4.709599912E-2,-7.057200372E-2,-3.758100048E-2
5.462218813E0,-1.616900042E-2,-9.152200073E-2,-7.716199756E-2
5.467149892E0,1.371999970E-3,-1.118709967E-1,-1.072480008E-1
5.472081053E0,1.016199961E-2,-1.149939969E-1,-1.373900026E-1
5.477012361E0,7.900000201E-4,-9.632799774E-2,-1.412079930E-1
5.481943517E0,-3.604400158E-2,-1.007400006E-1,-1.164200008E-1
5.486874604E0,-8.380299807E-2,-7.157099992E-2,-1.275240034E-1
5.491805909E0,-8.519399911E-2,-2.549600042E-2,-1.003179997E-1
5.496737070E0,-1.449020058E-1,3.851999994E-3,-7.306800038E-2
5.501668147E0,-1.449699998E-1,4.443600029E-2,-1.246830001E-1
5.506599453E0,-1.405860037E-1,4.285300151E-2,-1.501580030E-1
5.511530623E0,-1.642030030E-1,4.418500140E-2,-1.924729943E-1
5.516461928E0,-1.290269941E-1,2.529799938E-2,-1.991720051E-1
5.521393007E0,-1.065929979E-1,-1.089600008E-2,-2.062689960E-1
5.526324145E0,-7.570300251E-2,-3.614699841E-2,-2.304390073E-1
5.531255453E0,-6.758099794E-2,-5.527399853E-2,-1.998459995E-1
5.536186609E0,-2.702200040E-2,-8.072400093E-2,-2.341099977E-1
5.541117686E0,-1.558999997E-3,-5.809200183E-2,-2.229440063E-1
5.546048991E0,8.913000114E-3,-2.345900051E-2,-1.687040031E-1
5.550980147E0,2.358200029E-2,-5.307999905E-3,-9.537799656E-2
5.555911204E0,6.580399722E-2,1.276899967E-2,-4.841300100E-2
5.560842510E0,1.305570006E-1,1.633200049E-2,-4.215700179E-2
5.565773666E0,1.777279973E-1,1.985899918E-2,-2.154500037E-2
5.570704758E0,2.103720009E-1,4.366999958E-3,-4.166299850E-2
5.575636063E0,2.409210056E-1,-6.235999987E-3,-3.544300050E-2
5.580567195E0,2.556349933E-1,-3.299200162E-2,-3.409900144E-2
5.585498501E0,2.596229911E-1,-2.629099973E-2,3.211000003E-3
5.590429580E0,2.756280005E-1,-3.561900184E-2,5.468799919E-2
5.595360741E0,2.637369931E-1,-6.128299981E-2,4.625299945E-2
5.600292048E0,2.361180037E-1,-7.016099989E-2,5.460999906E-2
5.605223127E0,1.722649932E-1,-3.727800027E-2,7.525400072E-2
5.610154270E0,8.934500068E-2,-5.218499899E-2,1.127009988E-1
5.615085578E0,2.983699925E-2,3.809999907E-4,1.338140070E-1
5.620016657E0,-3.720999882E-2,2.756600082E-2,1.624410003E-1
5.624947809E0,-7.686399668E-2,3.910199925E-2,1.865530014E-1
5.629879116E0,-8.504699916E-2,6.308200210E-2,1.607670039E-1
5.634810195E0,-7.198999822E-2,6.202799827E-2,1.280030012E-1
5.639741347E0,-4.968500137E-2,4.351399839E-2,7.621400058E-2
5.644672655E0,-7.501699775E-2,2.223600075E-2,3.169199824E-2
5.649603811E0,-5.260799825E-2,4.100000078E-4,-5.541999824E-3
5.654534878E0,-3.963299841E-2,-1.704999991E-2,-6.902100146E-2
5.659466183E0,-2.661800012E-2,-2.287399955E-2,-8.933199942E-2
5.664397262E0,-3.706699982E-2,-5.939399824E-2,-9.534399956E-2
5.669328400E0,-2.831700072E-2,-5.553599820E-2,-1.180479974E-1
5.674259708E0,1.533299964E-2,-5.651300028E-2,-1.718900055E-1
5.679190864E0,4.130500183E-2,-6.218900159E-2,-2.808400095E-1
5.684121931E0,6.640099734E-2,-6.055900082E-2,-3.802599907E-1
5.689053236E0,7.921800017E-2,-4.672599956E-2,-4.294480085E-1
5.693984392E0,5.393800139E-2,-2.588200010E-2,-4.546540082E-1
5.698915483E0,6.875500083E-2,-1.799600013E-2,-3.987509906E-1
5.703846789E0,1.780899987E-2,-2.473100089E-2,-3.240860105E-1
5.708777945E0,-2.302199975E-2,-2.241799980E-2,-2.569630146E-1
5.713709236E0,-6.569799781E-2,-9.154000320E-3,-2.164350003E-1
5.718640315E0,-8.928299695E-2,1.473800000E-2,-1.593640000E-1
5.723571467E0,-9.299799800E-2,2.850800008E-2,-1.003179997E-1
5.728502784E0,-1.228569970E-1,5.964500085E-2,-8.208800107E-2
5.733433940E0,-1.335610002E-1,3.958300129E-2,-3.063200042E-2
5.738365017E0,-1.063460037E-1,-5.799999926E-4,-1.777699962E-2
5.743296099E0,-9.565699846E-2,-3.239399940E-2,-9.928000160E-3
5.748227404E0,-7.513300329E-2,-7.957799733E-2,3.357600048E-2
5.753158560E0,-4.023599997E-2,-1.324609965E-1,1.199000031E-1
5.758089880E0,-4.765599966E-2,-1.534840018E-1,2.156990021E-1
5.763020959E0,-3.594699875E-2,-1.858160049E-1,2.611050010E-1
5.767952121E0,-2.684400044E-2,-1.776719987E-1,3.041729927E-1
5.772883200E0,-4.623600096E-2,-1.744679958E-1,3.257470131E-1
5.777814582E0,-6.075099856E-2,-1.484100074E-1,2.876900136E-1
5.782745890E0,-7.282599807E-2,-1.070559993E-1,2.738679945E-1
5.787676969E0,-3.296099976E-2,-7.661800086E-2,2.243700027E-1
5.792608046E0,-2.665000036E-2,-4.995699972E-2,1.871050000E-1
5.797539438E0,-1.554599963E-2,-3.402199969E-2,1.740069985E-1
5.802470517E0,-9.111000225E-3,-9.227000177E-3,1.945649981E-1
5.807401671E0,4.188000225E-3,9.627000429E-3,2.536390126E-1
5.812332762E0,2.394700050E-2,1.330600027E-2,3.128379881E-1
5.817264068E0,5.200299993E-2,1.861399971E-2,3.793219924E-1
5.822195224E0,8.809299767E-2,1.823000051E-2,3.980360031E-1
5.827126515E0,1.020689979E-1,3.293899819E-2,3.547860086E-1
5.832057594E0,1.226710007E-1,4.394299909E-2,3.309130073E-1
5.836988746E0,1.430799961E-1,4.209500179E-2,3.071959913E-1
5.841920063E0,1.425350010E-1,5.993499979E-2,2.168010026E-1
5.846851142E0,1.219879985E-1,5.299999937E-2,1.649190038E-1
5.851782309E0,1.344680041E-1,6.225800142E-2,1.347520053E-1
5.856713616E0,1.262229979E-1,6.124199927E-2,6.164700165E-2
5.861644772E0,8.341299742E-2,8.082400262E-2,7.329999935E-4
5.866575849E0,3.446299955E-2,8.106400073E-2,4.542999901E-3
5.871507155E0,2.861900069E-2,6.953500211E-2,-1.258000033E-3
5.876438234E0,2.948700078E-2,7.235000283E-2,-3.100500070E-2
5.881369376E0,3.793000011E-3,7.050999999E-2,-5.838799849E-2
5.886300683E0,2.716800012E-2,9.704799950E-2,-8.094599843E-2
5.891231839E0,4.892899841E-2,8.694499731E-2,-1.129920036E-1
5.896163164E0,7.196599990E-2,8.209200203E-2,-1.451569945E-1
5.901094243E0,1.080259979E-1,5.916700140E-2,-1.727820039E-1
5.906025395E0,1.058909968E-1,5.381400138E-2,-1.861860007E-1
5.910956489E0,1.339550018E-1,2.130400017E-2,-1.999240071E-1
5.915887871E0,1.285630018E-1,1.155999955E-2,-1.684000045E-1
5.920818950E0,1.163500026E-1,7.249999908E-4,-1.275389940E-1
5.925750241E0,1.114780009E-1,-9.115999565E-3,-1.443240047E-1
5.930681320E0,9.949000180E-2,-1.990799978E-2,-9.674400091E-2
5.935612703E0,5.974899977E-2,-2.021900006E-2,-8.043199778E-2
5.940543787E0,2.096099965E-2,-4.060399905E-2,-6.676600128E-2
5.945474940E0,1.330200024E-2,-4.594599828E-2,-7.717499882E-2
5.950406017E0,1.001999946E-3,-5.570799857E-2,-6.130700186E-2
5.955337079E0,-1.134500001E-2,-8.125299960E-2,-2.886899933E-2
5.960268385E0,-2.151799947E-2,-7.546100020E-2,-8.445999585E-3
5.965199541E0,-6.684699655E-2,-7.427900285E-2,2.154899947E-2
5.970130833E0,-8.095499873E-2,-7.071600109E-2,5.394599959E-2
5.975061911E0,-8.232600242E-2,-6.886100024E-2,9.582100064E-2
5.979993063E0,-8.367600292E-2,-3.957600147E-2,8.287499845E-2
5.984924366E0,-9.405799955E-2,-6.747700274E-2,8.187100291E-2
5.989855522E0,-1.037719995E-1,-6.483499706E-2,6.663200259E-2
5.994786828E0,-8.030600101E-2,-6.520400196E-2,3.953000158E-2
5.999717888E0,-7.337500155E-2,-8.950000256E-2,-1.927000005E-3
6.004649039E0,-4.539100081E-2,-8.551300317E-2,-1.219299994E-2
6.009580103E0,-3.877500072E-2,-7.483900338E-2,-4.390799999E-2
6.014511409E0,-5.301799998E-2,-6.907399744E-2,-6.360100210E-2
6.019442565E0,-6.207799911E-2,-4.673099890E-2,-2.099799924E-2
6.024373866E0,-3.611800075E-2,-1.045800000E-2,4.081000015E-2
6.029304945E0,-1.117600035E-2,2.996299975E-2,5.721399933E-2
6.034236096E0,5.913999863E-3,6.279200315E-2,3.536399826E-2
6.039167419E0,-6.200000062E-4,8.132500201E-2,3.932999913E-3
6.044098498E0,2.376100048E-2,9.880000353E-2,-1.410000026E-3
6.049029669E0,3.402699903E-2,9.346999973E-2,2.309999982E-4
6.053960977E0,1.643499918E-2,7.066799700E-2,1.356600039E-2
6.058892055E0,1.358500030E-2,2.841800079E-2,5.287599936E-2
6.063823193E0,1.805000007E-3,6.903999951E-3,8.953499794E-2
6.068754501E0,-2.527999924E-3,-2.267500013E-2,1.067870036E-1
6.073685580E0,-2.305399999E-2,-1.558999997E-2,1.383070052E-1
6.078616712E0,-4.786200076E-2,-5.878999829E-3,1.267209947E-1
6.083548020E0,-7.431200147E-2,-8.183999918E-3,6.969700009E-2
6.088479166E0,-6.241999939E-2,-1.052100025E-2,6.537300348E-2
6.093410243E0,-5.987000093E-2,1.501400024E-2,3.728000075E-2
6.098341549E0,-2.899700031E-2,-9.473999962E-3,5.223799869E-2
6.103272714E0,-1.034499984E-2,-1.982799917E-2,9.837000072E-2
6.108203791E0,-4.087999929E-3,-2.574899979E-2,1.469559968E-1
6.113135097E0,6.250000093E-3,-2.491299994E-2,2.147540003E-1
6.118066233E0,5.564700067E-2,1.064599957E-2,2.994599938E-1
6.122997310E0,5.841600150E-2,7.263999898E-3,3.411409855E-1
6.127928616E0,1.047260016E-1,5.232600123E-2,3.375659883E-1
6.132859782E0,1.279450059E-1,5.557499826E-2,2.958140075E-1
6.137790859E0,1.289869994E-1,8.363399655E-2,2.854180038E-1
6.142722241E0,1.446969956E-1,6.068800017E-2,2.535189986E-1
6.147653320E0,1.388860047E-1,4.644700140E-2,2.002180070E-1
6.152584626E0,1.125829965E-1,4.581300169E-2,1.853930056E-1
6.157515782E0,8.275199682E-2,3.064000048E-2,1.610669941E-1
6.162446863E0,6.087300181E-2,2.694199979E-2,1.416369975E-1
6.167378169E0,6.031399965E-2,6.941999774E-3,1.364929974E-1
6.172309324E0,4.091100022E-2,2.682700008E-2,7.882200181E-2
6.177240406E0,3.306000028E-3,5.761599913E-2,6.988000125E-3
6.182171712E0,3.423500061E-2,5.021100119E-2,-8.165200055E-2
6.187102868E0,1.818300039E-2,3.849099949E-2,-1.870989949E-1
6.192034169E0,-1.069299970E-2,1.821799949E-2,-2.854770124E-1
6.196965248E0,-4.259699956E-2,4.133500159E-2,-3.096210063E-1
6.201896399E0,-3.608600050E-2,4.735000059E-2,-2.933889925E-1
6.206827483E0,-5.005199835E-2,5.698399991E-2,-2.940799892E-1
6.211758789E0,-7.721800357E-2,5.848700181E-2,-2.949590087E-1
6.216689945E0,-1.012210026E-1,4.272900149E-2,-2.673769891E-1
6.221621013E0,-9.619300067E-2,8.743699640E-2,-2.590279877E-1
6.226552319E0,-1.237379983E-1,9.276600182E-2,-2.292930037E-1
6.231483474E0,-1.198770031E-1,9.690199792E-2,-2.284529954E-1
6.236414799E0,-7.143999636E-2,7.167000324E-2,-1.895979941E-1
6.241345878E0,-2.436500043E-2,4.333899915E-2,-1.103290021E-1
6.246277025E0,-9.348000400E-3,-9.186999872E-3,-2.182199992E-2
6.251208333E0,4.412000068E-3,-2.215800062E-2,5.211199820E-2
6.256139412E0,2.132399939E-2,-4.598699883E-2,1.497970074E-1
6.261070558E0,3.871599957E-2,-9.490299970E-2,2.616330087E-1
6.266001866E0,7.072799653E-2,-8.669099957E-2,3.303790092E-1
6.270932945E0,7.268399745E-2,-5.810699984E-2,3.633759916E-1
6.275864102E0,7.388199866E-2,-4.750299826E-2,4.037379920E-1
6.280795410E0,1.313049942E-1,-3.314000089E-3,4.659650028E-1
6.285726489E0,1.691139936E-1,3.098700009E-2,4.471699893E-1
6.290657659E0,2.188339978E-1,5.548699945E-2,4.048089981E-1
6.295588967E0,2.736679912E-1,2.771000005E-2,3.220469952E-1
6.300520123E0,3.009600043E-1,3.699999943E-4,2.515690029E-1
6.305451190E0,2.981019914E-1,-5.381200090E-2,1.859109998E-1
6.310382496E0,2.945050001E-1,-8.748299628E-2,1.539739966E-1
6.315313575E0,2.736060023E-1,-6.134499982E-2,1.487630010E-1
6.320244952E0,2.093169987E-1,-7.068400085E-2,1.415590048E-1
6.325176031E0,1.109940037E-1,-1.751900092E-2,1.658259928E-1
6.330107185E0,2.583299950E-2,3.381200135E-2,1.544619948E-1
6.335038262E0,-3.490500152E-2,4.134500027E-2,1.336349994E-1
6.339969568E0,-1.046259999E-1,6.459400058E-2,8.424100280E-2
6.344900751E0,-1.644330025E-1,8.457600325E-2,2.300800011E-2
6.349832057E0,-2.118919939E-1,7.109499723E-2,-8.370299637E-2
6.354763213E0,-2.164620012E-1,7.428699732E-2,-1.736419946E-1
6.359694271E0,-2.000019997E-1,6.489399821E-2,-2.275100052E-1
6.364625348E0,-1.908439994E-1,2.828899957E-2,-3.079200089E-1
6.369556731E0,-1.840859950E-1,5.030999891E-3,-3.645699918E-1
6.374487814E0,-1.401669979E-1,-1.185800042E-2,-3.185229897E-1
6.379419120E0,-8.806700259E-2,-1.568000019E-2,-3.157739937E-1
6.384350199E0,-3.738800064E-2,-3.439899907E-2,-2.917880118E-1
6.389281336E0,-4.387700185E-2,-1.651499979E-2,-2.702769935E-1
6.394212644E0,-4.800400138E-2,-2.585599944E-2,-2.417950034E-1
6.399143800E0,-1.267400011E-2,-3.858200088E-2,-2.614380121E-1
6.404074876E0,3.832900152E-2,-2.659800090E-2,-3.171429932E-1
6.409006182E0,5.091900006E-2,-3.469799832E-2,-3.347420096E-1
6.413937338E0,5.642500147E-2,-6.941200048E-2,-3.358590007E-1
6.418868415E0,6.430400163E-2,-7.144399732E-2,-2.797200084E-1
6.423799721E0,5.065599829E-2,-7.398799807E-2,-1.998769939E-1
6.428730877E0,4.583499953E-2,-5.595799908E-2,-7.714200020E-2
6.433662197E0,3.490599990E-2,-4.843199998E-2,6.691599637E-2
6.438593276E0,2.468799986E-2,-3.052400053E-2,1.126639992E-1
6.443524442E0,2.438599989E-2,1.143100020E-2,1.703169942E-1
6.448455521E0,1.081100013E-2,2.954999916E-2,1.680790037E-1
6.453386827E0,1.772099920E-2,3.323600069E-2,1.299259961E-1
6.458317992E0,1.003499981E-2,4.112999886E-3,1.467799991E-1
6.463249297E0,6.617499888E-2,-3.626599908E-2,1.851000041E-1
6.468180376E0,8.875600249E-2,-7.843200117E-2,2.090210021E-1
6.473111519E0,8.545199782E-2,-1.203100011E-1,2.353560030E-1
6.478042827E0,9.928099811E-2,-1.173779964E-1,2.666079998E-1
6.482973906E0,9.708800167E-2,-1.339560002E-1,3.266940117E-1
6.487905043E0,6.290200353E-2,-1.442469954E-1,3.318960071E-1
6.492836350E0,7.487499714E-2,-1.437339932E-1,3.276970088E-1
6.497767506E0,1.040870026E-1,-1.305579990E-1,3.093619943E-1
6.502698569E0,1.244169995E-1,-1.049820036E-1,2.793039978E-1
6.507629875E0,1.922709942E-1,-5.328999832E-2,2.016450018E-1
6.512561031E0,2.293290049E-1,-6.492500007E-2,1.744029969E-1
6.517492303E0,2.408369929E-1,-4.908899963E-2,1.928109974E-1
6.522423382E0,2.409739941E-1,-1.761399955E-2,2.760049999E-1
6.527354459E0,1.964589953E-1,-6.072000135E-3,3.353669941E-1
6.532285644E0,1.969600022E-1,2.161700092E-2,3.755559921E-1
6.537216952E0,1.685000062E-1,4.600900039E-2,3.607710004E-1
6.542148108E0,1.302130073E-1,6.732700020E-2,3.053500056E-1
6.547079170E0,9.193000197E-2,5.790099874E-2,2.379190028E-1
6.552010475E0,4.234300181E-2,4.894199967E-2,1.680680066E-1
6.556941631E0,4.317700118E-2,1.275600027E-2,1.148269996E-1
6.561872942E0,1.331899967E-2,2.014699951E-2,9.028399736E-2
6.566804098E0,7.470999844E-3,3.058199957E-2,5.131400004E-2
6.571735098E0,-3.336700052E-2,-1.011100039E-2,5.032000132E-3
6.576666225E0,-5.432799831E-2,-4.687000066E-3,-1.734500006E-2
6.581597610E0,-4.659400135E-2,-5.609000102E-3,3.294999944E-3
6.586528689E0,-5.787599832E-2,-4.816500098E-2,2.256999956E-3
6.591460034E0,-7.834500074E-2,-1.424700022E-2,-4.184500128E-2
6.596391190E0,-7.228899747E-2,-2.979500033E-2,-1.027700007E-1
6.601322267E0,-5.639100075E-2,-5.381099880E-2,-1.589950025E-1
6.606253557E0,-5.907300115E-2,-6.009799987E-2,-9.796100110E-2
6.611184713E0,-7.306399941E-2,-7.016800344E-2,-5.613999814E-2
6.616115790E0,-5.364900082E-2,-8.399400115E-2,-9.607999586E-3
6.621047101E0,-7.688000053E-2,-6.872600317E-2,4.410799965E-2
6.625978257E0,-7.620999962E-2,-3.680000082E-2,8.348999918E-2
6.630909334E0,-8.473099768E-2,8.840000257E-3,7.986500114E-2
6.635840639E0,-5.063499883E-2,5.363399908E-2,1.026569977E-1
6.640771795E0,-4.738299921E-2,5.976599827E-2,1.518429965E-1
6.645702872E0,-2.730499953E-2,1.028470024E-1,1.867939979E-1
6.650634178E0,1.639799960E-2,1.186809987E-1,2.290090024E-1
6.655565257E0,8.776299655E-2,1.027809978E-1,3.023869991E-1
6.660496409E0,1.343670040E-1,6.249300018E-2,3.494510055E-1
6.665427721E0,1.659920067E-1,6.153399870E-2,3.559159935E-1
6.670358800E0,1.527100056E-1,4.519300163E-2,2.978340089E-1
6.675289952E0,1.656710058E-1,5.146700144E-2,2.542240024E-1
6.680221260E0,2.089650035E-1,1.894100010E-2,2.273959965E-1
6.685152416E0,2.253029943E-1,-9.202999994E-3,1.670680046E-1
6.690083493E0,2.265470028E-1,-4.161199927E-2,4.438500106E-2
6.695014798E0,2.126280069E-1,-9.749899805E-2,-4.716299847E-2
6.699945954E0,1.789450049E-1,-1.051379964E-1,-1.459320039E-1
6.704877031E0,1.281269938E-1,-6.489100307E-2,-2.087849975E-1
6.709808337E0,1.168410033E-1,-1.480900031E-2,-1.950549930E-1
6.714739493E0,1.711600088E-2,2.370099910E-2,-1.741590053E-1
6.719670798E0,-5.216699839E-2,8.149299771E-2,-1.101759970E-1
6.724601886E0,-1.312330067E-1,1.205499992E-1,-3.903499991E-2
6.729533038E0,-1.537790000E-1,1.645800024E-1,3.927300125E-2
6.734464117E0,-2.053380013E-1,1.873539984E-1,1.439069957E-1
6.739395433E0,-2.496490031E-1,2.404610068E-1,2.031189948E-1
6.744326589E0,-2.139559984E-1,1.564439982E-1,2.765739858E-1
6.749257903E0,-1.443540007E-1,8.083900064E-2,2.996610105E-1
6.754189059E0,-1.160420030E-1,-5.539999809E-3,2.556500137E-1
6.759120136E0,-9.714499861E-2,-4.872800037E-2,2.020909935E-1
6.764051409E0,-7.502000034E-2,-3.100300021E-2,1.199159995E-1
6.768982565E0,-3.280499950E-2,-6.627900153E-2,9.525900334E-2
6.773913642E0,1.501499955E-2,-5.738399923E-2,1.066209972E-1
6.778844961E0,5.195799842E-2,-3.593299910E-2,3.910500184E-2
6.783776117E0,8.545400202E-2,-2.354099974E-2,-1.025059968E-1
6.788707194E0,1.609060019E-1,-3.598999977E-2,-1.842070073E-1
6.793638505E0,2.313849926E-1,-6.539300084E-2,-1.820890009E-1
6.798569661E0,2.905740142E-1,-1.113120019E-1,-1.394259930E-1
6.803500738E0,3.046129942E-1,-1.604470015E-1,-1.087940037E-1
6.808432048E0,2.926039994E-1,-1.540250033E-1,-3.673000028E-3
6.813363204E0,2.644490004E-1,-1.462589949E-1,1.110849977E-1
6.818294510E0,1.850830019E-1,-1.162550002E-1,1.876379997E-1
6.823225545E0,1.045069993E-1,-8.331099898E-2,2.140100002E-1
6.828156697E0,-1.219999976E-2,-3.156600147E-2,1.447609961E-1
6.833087776E0,-7.805299759E-2,4.457999952E-3,1.306560040E-1
6.838019091E0,-1.546300054E-1,6.971900165E-2,1.118709967E-1
6.842950247E0,-2.344200015E-1,6.519500166E-2,5.000900105E-2
6.847881324E0,-2.257360071E-1,4.177400097E-2,4.799500108E-2
6.852812625E0,-2.080000043E-1,2.805100009E-2,9.386400133E-2
6.857743781E0,-1.862940043E-1,3.619999916E-4,1.421110034E-1
6.862674858E0,-1.819639951E-1,-5.056300014E-2,1.520110071E-1
6.867606173E0,-1.641770005E-1,-4.209800065E-2,1.643400043E-1
6.872537329E0,-1.046530008E-1,-7.646899670E-2,1.622889936E-1
6.877468635E0,-3.910199925E-2,-4.740599915E-2,1.028589979E-1
6.882399714E0,3.980899975E-2,-8.049999923E-2,6.258500367E-2
6.887330866E0,9.465800226E-2,-6.662499905E-2,-4.226800054E-2
6.892262173E0,1.499540061E-1,-3.223900124E-2,-1.111349985E-1
6.897193233E0,1.708189994E-1,-8.939999971E-4,-1.560129970E-1
6.902124385E0,1.718270034E-1,-1.926100068E-2,-1.650110036E-1
6.907055693E0,1.345620006E-1,1.003099978E-2,-1.572349966E-1
6.911986772E0,4.989700019E-2,6.524799764E-2,-1.350670010E-1
6.916917924E0,2.871999983E-3,5.449900031E-2,-1.201499999E-1
6.921849308E0,-1.720999926E-2,8.032099903E-2,-6.696400046E-2
6.926780291E0,-6.289599836E-2,8.554200083E-2,-3.059099987E-2
6.931711443E0,-8.246300370E-2,8.469499648E-2,9.219999774E-4
6.936642751E0,-6.730499864E-2,9.427600354E-2,-3.465300053E-2
6.941573917E0,-5.931000039E-2,9.411299974E-2,-7.260999829E-2
6.946505222E0,-5.404200032E-2,6.457299739E-2,-9.392400086E-2
6.951436301E0,-2.144199982E-2,3.219699860E-2,-8.904299885E-2
6.956367358E0,1.444599964E-2,2.010300010E-2,-8.184800297E-2
6.961298510E0,3.488799930E-2,-3.054399975E-2,-7.241400331E-2
6.966229818E0,3.110099956E-2,-6.768199801E-2,-2.957100049E-2
6.971160960E0,2.709200047E-2,-9.883599728E-2,1.797600091E-2
6.976092037E0,5.551600084E-2,-9.440100193E-2,5.836600065E-2
6.981023342E0,7.154200226E-2,-7.178100199E-2,7.488100231E-2
6.985954488E0,3.591499850E-2,-5.477799848E-2,1.034270003E-1
6.990885794E0,5.965299904E-2,-2.965999953E-2,1.201040000E-1
6.995816950E0,5.051799864E-2,-1.523999963E-3,5.550000072E-2
7.000748046E0,2.590299957E-2,2.728199959E-2,2.693499997E-2
7.005679123E0,2.138799988E-2,3.111599945E-2,1.999199949E-2
7.010610428E0,1.552399993E-2,3.454700112E-2,2.984399907E-2
7.015541584E0,-1.812699996E-2,4.220100120E-2,6.847299635E-2
7.020472890E0,-5.825899914E-2,6.098100170E-2,6.646499783E-2
7.025403969E0,-7.449100167E-2,7.189299911E-2,6.690700352E-2
7.030335121E0,-1.097010002E-1,7.293500006E-2,6.019800156E-2
7.035266428E0,-1.120809987E-1,7.379300147E-2,5.350200087E-2
7.040197507E0,-1.221240014E-1,7.215899974E-2,3.723999858E-2
7.045128664E0,-1.418920010E-1,7.059200108E-2,5.928900093E-2
7.050059972E0,-1.126589999E-1,5.962599814E-2,6.695400178E-2
7.054991051E0,-7.294200361E-2,2.764900029E-2,7.218100131E-2
7.059922203E0,-2.742600068E-2,8.038000204E-3,7.497700304E-2
7.064853510E0,1.219800021E-2,-6.632999983E-3,5.141900107E-2
7.069784575E0,6.028399989E-2,-4.448899999E-2,1.821899973E-2
7.074715727E0,9.814900160E-2,-6.725800037E-2,2.088000067E-2
7.079647035E0,1.201319993E-1,-7.675699890E-2,3.779499978E-2
7.084578191E0,1.507290006E-1,-9.251700342E-2,4.745399952E-2
7.089509268E0,1.596750021E-1,-8.663199842E-2,5.231900141E-2
7.094440573E0,1.384070069E-1,-8.045099676E-2,5.477400124E-2
7.099371719E0,8.084499836E-2,-5.082999915E-2,8.840300143E-2
7.104303025E0,4.381100088E-2,-2.866799943E-2,1.436070055E-1
7.109234181E0,2.890999988E-2,-2.499999937E-5,1.868990064E-1
7.114165253E0,-2.040700056E-2,6.775999907E-3,2.158560008E-1
7.119096330E0,-5.682599917E-2,1.091600023E-2,2.663849890E-1
7.124027635E0,-3.405300155E-2,3.993999958E-2,2.380180061E-1
7.128958791E0,-2.852199972E-2,3.036200069E-2,2.072809935E-1
7.133890097E0,-2.546999976E-2,5.768299848E-2,1.215920001E-1
7.138821176E0,-5.719999783E-3,4.861599952E-2,7.664900273E-2
7.143752323E0,2.357099950E-2,5.317899957E-2,-2.329500020E-2
7.148683402E0,4.833399877E-2,6.872999668E-2,-7.526499778E-2
7.153614784E0,6.605900079E-2,3.656699881E-2,-1.056950018E-1
7.158545868E0,1.166990027E-1,4.488699883E-2,-1.337080002E-1
7.163477174E0,1.102349982E-1,1.553199999E-2,-1.976799965E-1
7.168408253E0,1.062209979E-1,4.107600078E-2,-2.328979969E-1
7.173339315E0,1.018299982E-1,5.517899990E-2,-2.418230027E-1
7.178270697E0,1.344490051E-1,7.700800151E-2,-2.436109930E-1
7.183201776E0,1.059100032E-1,1.052329987E-1,-2.381460071E-1
7.188132930E0,9.829600155E-2,1.082689986E-1,-2.782750130E-1
7.193064236E0,1.062539965E-1,4.612600058E-2,-2.515380085E-1
7.197995315E0,9.705000371E-2,3.763499856E-2,-2.155179977E-1
7.202926463E0,1.083370000E-1,9.759999812E-3,-2.036399990E-1
7.207857770E0,1.073039994E-1,-1.597799920E-2,-1.392759979E-1
7.212788926E0,1.024100035E-1,-4.034600034E-2,-7.981900126E-2
7.217720017E0,9.055799991E-2,-7.519999892E-2,-4.922100157E-2
7.222651323E0,8.390700072E-2,-9.707500041E-2,-2.110400051E-2
7.227582402E0,5.893399939E-2,-1.018399969E-1,4.290600121E-2
7.232513549E0,5.849200115E-2,-9.245000035E-2,9.496899694E-2
7.237444856E0,4.928399995E-2,-9.521500021E-2,1.470530033E-1
7.242376012E0,2.181399986E-2,-1.112530008E-1,1.966540068E-1
7.247307074E0,3.020000004E-4,-1.042430028E-1,2.223950028E-1
7.252238380E0,8.319999906E-4,-9.352800250E-2,2.362589985E-1
7.257169459E0,-5.274000112E-3,-8.169899881E-2,2.717809975E-1
7.262100606E0,-1.566500030E-2,-9.670200199E-2,2.786169946E-1
7.267031913E0,-2.324300073E-2,-7.739800215E-2,2.879819870E-1
7.271963069E0,-3.749300167E-2,-5.506300181E-2,2.687610090E-1
7.276894141E0,-6.043399870E-2,-1.109999977E-2,2.617099881E-1
7.281825447E0,-2.898100019E-2,-1.616000012E-2,1.637649983E-1
7.286756603E0,1.114299987E-2,-2.213300020E-2,6.111200154E-2
7.291687922E0,3.243400156E-2,-2.893799916E-2,-3.667899966E-2
7.296619001E0,5.624800175E-2,-2.903199941E-2,-1.009100005E-1
7.301550153E0,4.947799817E-2,1.064599957E-2,-1.147750020E-1
7.306481242E0,5.014000088E-2,3.326399997E-2,-1.142480001E-1
7.311412548E0,5.296599865E-2,6.959199905E-2,-1.543609947E-1
7.316343704E0,4.375300184E-2,9.144999832E-2,-1.681209952E-1
7.321275009E0,-8.609999786E-4,1.345569938E-1,-1.674820036E-1
7.326206088E0,-2.784000011E-3,1.404740065E-1,-2.050350010E-1
7.331137230E0,8.840999566E-3,1.491640061E-1,-2.162780017E-1
7.336068309E0,-3.437000094E-3,1.606920063E-1,-2.131859958E-1
7.340999615E0,2.897999948E-3,1.237609982E-1,-2.294130027E-1
7.345930761E0,1.583800092E-2,1.304509938E-1,-2.313220054E-1
7.350861838E0,4.008999839E-2,1.351000071E-1,-2.715680003E-1
7.355793220E0,7.067199796E-2,6.616800278E-2,-2.378769964E-1
7.360724285E0,6.796000153E-2,4.634600133E-2,-2.282399982E-1
7.365655591E0,4.927400127E-2,2.767900005E-2,-1.947640032E-1
7.370586747E0,4.739300162E-2,-2.235299908E-2,-1.662719995E-1
7.375517829E0,4.807600006E-2,-1.683500037E-2,-1.043070033E-1
7.380449134E0,3.908000141E-2,-2.268099971E-2,-6.633599848E-2
7.385380290E0,-7.834999822E-3,-3.521300107E-2,-7.629600167E-2
7.390311367E0,-2.378099971E-2,-6.597299874E-2,-5.042300001E-2
7.395242673E0,-2.795499936E-2,-5.366300046E-2,-4.370100051E-2
7.400173829E0,-7.214699686E-2,-9.061600268E-2,2.997599915E-2
7.405105148E0,-7.331100106E-2,-1.150199994E-1,5.571899936E-2
7.410036227E0,-3.004400060E-2,-1.155019999E-1,7.188899815E-2
7.414967379E0,-2.297599986E-2,-1.252239943E-1,1.359169930E-1
7.419898697E0,-3.741500154E-2,-1.465550065E-1,2.094970047E-1
7.424829776E0,-2.801699936E-2,-1.403100044E-1,2.303009927E-1
7.429760928E0,-2.574500069E-2,-1.251610070E-1,2.775059938E-1
7.434692235E0,-5.350600183E-2,-1.039189994E-1,3.367890120E-1
7.439623299E0,-4.311399907E-2,-9.548199922E-2,3.626230061E-1
7.444554451E0,-3.965499997E-2,-1.043810025E-1,3.693560064E-1
7.449485759E0,-1.024500001E-2,-1.046380028E-1,3.498310149E-1
7.454416833E0,7.400000002E-3,-1.011079997E-1,3.519400060E-1
7.459347985E0,2.751999907E-2,-8.238200098E-2,2.967140079E-1
7.464279064E0,4.306500033E-2,-7.209499925E-2,2.224390060E-1
7.469210369E0,3.561599925E-2,-6.512200087E-2,1.865530014E-1
7.474141525E0,3.584999964E-2,-6.126499921E-2,1.507299989E-1
7.479072831E0,6.740800291E-2,-5.858900025E-2,8.627399802E-2
7.484003896E0,3.993299976E-2,-5.627200007E-2,5.298100039E-2
7.488935048E0,2.689700015E-2,-7.748100162E-2,5.077800155E-2
7.493866355E0,2.792299911E-2,-9.567099810E-2,5.331499875E-2
7.498797439E0,-1.132799964E-2,-7.017499954E-2,5.341200158E-2
7.503728591E0,-3.375099972E-2,-3.346300125E-2,4.639299959E-2
7.508659899E0,-7.246000227E-3,2.669999958E-4,2.983500063E-2
7.513590977E0,-7.524000015E-3,2.412899956E-2,1.329800021E-2
7.518522129E0,1.525699999E-2,3.860000148E-2,3.025900014E-2
7.523453436E0,4.433099926E-2,4.597000033E-2,6.504999939E-3
7.528384516E0,4.738200083E-2,7.202900201E-2,-1.002299972E-2
7.533315899E0,7.630500197E-2,5.584900081E-2,-4.817799851E-2
7.538246978E0,1.047889963E-1,4.047299922E-2,-2.175799944E-2
7.543178127E0,1.489650011E-1,2.819200046E-2,2.200999996E-3
7.548109433E0,1.478130072E-1,2.113300003E-2,4.573999904E-3
7.553040516E0,1.791560054E-1,1.687799953E-2,3.084800020E-2
7.557971668E0,1.651459932E-1,8.194000460E-3,2.596700005E-2
7.562902976E0,1.489440054E-1,3.002900071E-2,4.381000064E-3
7.567834064E0,1.330419928E-1,6.044000015E-2,-2.669600025E-2
7.572765216E0,1.198109984E-1,6.450600177E-2,-2.425000072E-2
7.577696524E0,1.139499992E-1,5.913899839E-2,-3.139200062E-2
7.582627616E0,1.152559966E-1,6.765100360E-2,-1.933800057E-2
7.587558768E0,1.278550029E-1,5.035899952E-2,-3.606399894E-2
7.592489847E0,1.214179993E-1,2.198800072E-2,-4.980999976E-3
7.597421139E0,1.103029996E-1,-2.191499993E-2,-5.125000142E-3
7.602352218E0,9.690999985E-2,-4.126600176E-2,2.580399998E-2
7.607283370E0,7.893799990E-2,-4.600200057E-2,4.713699967E-2
7.612214677E0,7.056000084E-2,-5.524300039E-2,7.084400207E-2
7.617145756E0,5.061599985E-2,-5.259799957E-2,1.137159988E-1
7.622076908E0,4.044400156E-2,-4.568900168E-2,1.135340035E-1
7.627008216E0,4.224099964E-2,-4.408799857E-2,7.029999793E-2
7.631939372E0,2.337300032E-2,-3.374199942E-2,2.953699976E-2
7.636870677E0,3.353999928E-2,-2.187200077E-2,1.518199965E-2
7.641801746E0,2.075999975E-2,-3.164400160E-2,-1.352300029E-2
7.646732898E0,1.934999949E-3,-5.081899837E-2,-7.336000353E-2
7.651663977E0,1.679000072E-2,-4.880100116E-2,-1.068290025E-1
7.656595288E0,6.198999938E-3,-3.521199897E-2,-9.955500066E-2
7.661526444E0,1.712399907E-2,-2.172500081E-2,-1.018460020E-1
7.666457749E0,4.478999879E-3,3.284000093E-3,-8.015500009E-2
7.671388842E0,3.617000068E-3,4.198100045E-2,-5.122400075E-2
7.676319994E0,-2.551000006E-2,5.452600121E-2,-3.666799888E-2
7.681251078E0,-1.479599997E-2,5.082000047E-2,-7.794999983E-3
7.686182384E0,-4.960999824E-3,5.479500070E-2,4.497199878E-2
7.691113540E0,1.321499981E-2,6.618999690E-2,1.024990007E-1
7.696044855E0,4.405900091E-2,4.288399965E-2,1.575109959E-1
7.700975934E0,7.097899914E-2,6.558999885E-3,1.788749993E-1
7.705907086E0,1.175569966E-1,-2.403100021E-2,1.714120060E-1
7.710838408E0,1.461700052E-1,-3.055300005E-2,1.423819959E-1
7.715769487E0,1.389899999E-1,-6.948100030E-2,1.443919986E-1
7.720700639E0,1.645770073E-1,-1.003350019E-1,1.559009999E-1
7.725631932E0,1.524980068E-1,-9.105899930E-2,1.914120018E-1
7.730563088E0,1.132270023E-1,-1.033079997E-1,1.814440042E-1
7.735494165E0,8.691500127E-2,-9.679099917E-2,1.906709969E-1
7.740425471E0,6.293600053E-2,-7.047600299E-2,2.070309967E-1
7.745356550E0,3.361099958E-2,-6.640700251E-2,2.067009956E-1
7.750287702E0,-1.240199991E-2,-6.060500070E-2,2.255930007E-1
7.755219000E0,-5.485400185E-2,-4.301099852E-2,2.470979989E-1
7.760150079E0,-8.424700052E-2,-7.732000202E-3,2.471780032E-1
7.765081221E0,-9.185100347E-2,1.675100066E-2,2.401729971E-1
7.770012529E0,-8.057200164E-2,4.939899966E-2,2.308900058E-1
7.774943685E0,-4.608099908E-2,6.900499761E-2,1.833799928E-1
7.779874767E0,-7.685000077E-3,7.361300290E-2,9.521300346E-2
7.784806072E0,4.319000058E-3,7.094900310E-2,7.170200348E-2
7.789737151E0,2.586599998E-2,8.297699690E-2,2.662100084E-2
7.794668303E0,8.726199716E-2,6.880000234E-2,6.750000175E-4
7.799599611E0,1.031289995E-1,6.916599721E-2,-1.331099961E-2
7.804530767E0,9.991399944E-2,7.427799702E-2,-3.925799951E-2
7.809462059E0,6.766399741E-2,6.457599998E-2,-4.601800069E-2
7.814393137E0,8.683700114E-2,3.924399987E-2,-6.964299828E-2
7.819324289E0,8.389499784E-2,4.745699838E-2,-4.778100178E-2
7.824255611E0,8.472999930E-2,4.408700019E-2,-5.948299915E-2
7.829186690E0,8.479800075E-2,7.369600236E-2,-6.395799667E-2
7.834117842E0,8.692300320E-2,5.085299909E-2,-6.223999895E-3
7.839049136E0,9.941600263E-2,6.845000200E-3,-1.395000028E-3
7.843980214E0,1.272639930E-1,2.703999914E-2,-1.808200032E-2
7.848911366E0,1.562899947E-1,2.592799999E-2,-2.043299936E-2
7.853842659E0,1.589809954E-1,1.336999983E-2,-6.060000043E-3
7.858773738E0,1.503189951E-1,-1.038299967E-2,1.543200016E-2
7.863704890E0,1.309410036E-1,6.113000214E-3,3.218900040E-2
7.868636213E0,9.645800292E-2,-4.514300078E-2,8.711899817E-2
7.873567291E0,7.280900329E-2,-5.074099824E-2,8.697099984E-2
7.878498443E0,6.204200163E-2,-6.562799960E-2,8.680500090E-2
7.883429522E0,2.639300004E-2,-8.950699866E-2,9.856700152E-2
7.888360828E0,1.305800024E-2,-1.196860000E-1,1.126499996E-1
7.893291984E0,-6.860999856E-3,-1.164669991E-1,1.004159972E-1
7.898223298E0,-4.257100075E-2,-1.226530001E-1,1.192940027E-1
7.903154377E0,-5.669699982E-2,-1.308950037E-1,1.381500065E-1
7.908085529E0,-6.845100224E-2,-1.110680029E-1,1.810020059E-1
7.913016608E0,-8.253300190E-2,-9.881500155E-2,1.951590031E-1
7.917947914E0,-1.058650017E-1,-7.777699828E-2,1.926259995E-1
7.922879070E0,-1.352560073E-1,-6.536599994E-2,1.852490008E-1
7.927810137E0,-1.313930005E-1,-2.272699960E-2,1.661590040E-1
7.932741442E0,-1.293790042E-1,1.843999955E-3,1.064829975E-1
7.937672598E0,-9.192299843E-2,6.676000077E-3,5.882300064E-2
7.942603675E0,-5.947599933E-2,5.963300169E-2,2.810500003E-2
7.947534981E0,-4.381800070E-2,4.120999947E-2,-3.377100080E-2
7.952466137E0,-1.887000049E-3,5.093900114E-2,-7.165499777E-2
7.957397442E0,3.024199978E-2,7.664100081E-2,-7.594899833E-2
7.962328521E0,8.547300100E-2,7.818999887E-2,-8.741299808E-2
7.967259673E0,7.827299833E-2,5.869400129E-2,-1.132830009E-1
7.972190981E0,9.646700323E-2,5.388100073E-2,-1.104570031E-1
7.977122137E0,8.908899873E-2,3.242300078E-2,-1.315979958E-1
7.982053223E0,8.101399988E-2,5.623399839E-2,-1.407520026E-1
7.986984528E0,1.025630012E-1,7.510600239E-2,-1.930010021E-1
7.991915684E0,9.957399964E-2,6.859099865E-2,-1.902720034E-1
7.996846776E0,9.372799844E-2,7.239300013E-2,-1.349329948E-1
8.001778082E0,8.980400115E-2,5.345800146E-2,-1.563200057E-1
8.006709238E0,6.697899848E-2,3.121599928E-2,-1.179829985E-1
8.011640300E0,3.286400065E-2,5.783000030E-3,-5.104900151E-2
8.016571605E0,8.860999718E-3,-2.515400015E-2,-1.299099997E-2
8.021502766E0,-9.847999550E-3,-3.827999905E-2,7.765299827E-2
8.026433843E0,-6.290099770E-2,-3.436899930E-2,1.299780011E-1
8.031365149E0,-6.324800104E-2,-5.596699938E-2,1.846240014E-1
8.036296319E0,-8.190300316E-2,-8.379399776E-2,1.961019933E-1
8.041227396E0,-9.935399890E-2,-7.838500291E-2,2.363449931E-1
8.046158697E0,-9.923499823E-2,-9.206099808E-2,2.311010063E-1
8.051089853E0,-1.264059991E-1,-9.189400077E-2,2.618350089E-1
8.056020930E0,-1.102809981E-1,-9.218700230E-2,2.686690092E-1
8.060952245E0,-1.103740036E-1,-9.307300299E-2,2.779560089E-1
8.065883401E0,-1.076669991E-1,-9.458599985E-2,2.873030007E-1
8.070814478E0,-8.116500080E-2,-8.735600114E-2,2.967250049E-1
8.075745783E0,-6.671900302E-2,-1.137029976E-1,2.558720112E-1
8.080676862E0,-2.232299931E-2,-9.583500028E-2,1.815990061E-1
8.085608245E0,-1.179299969E-2,-8.149600029E-2,1.505129933E-1
8.090539324E0,7.627000101E-3,-6.422399729E-2,7.647900283E-2
8.095470478E0,1.241999958E-2,-5.461199954E-2,2.882000059E-2
8.100401555E0,1.245300006E-2,-3.368800133E-2,9.952999651E-3
8.105332860E0,3.574499860E-2,8.050000179E-4,1.029799972E-2
8.110264016E0,6.770800054E-2,8.906999603E-3,-1.809000038E-2
8.115195093E0,8.124399930E-2,1.688499935E-2,1.394000021E-3
8.120126389E0,6.589800119E-2,5.985800177E-2,4.199000075E-3
8.125057545E0,7.153599709E-2,6.246000156E-2,1.654900052E-2
8.129988622E0,9.303999692E-2,9.090899676E-2,-2.134699933E-2
8.134919923E0,7.438100129E-2,9.102199972E-2,-3.053599969E-2
8.139851079E0,8.898299932E-2,8.461199701E-2,-3.499599919E-2
8.144782385E0,8.933400363E-2,7.394099981E-2,-2.034500055E-2
8.149713459E0,8.762600273E-2,6.834399700E-2,-1.768600009E-2
8.154644611E0,7.674100250E-2,4.932000116E-2,1.601899974E-2
8.159575919E0,8.498899639E-2,1.463199966E-2,3.286999837E-2
8.164507069E0,9.068699926E-2,-1.202899963E-2,4.724799842E-2
8.169438146E0,7.754100114E-2,-2.166800015E-2,7.597299665E-2
8.174369452E0,6.562200189E-2,-1.898800023E-2,6.634499878E-2
8.179300608E0,4.709799960E-2,-1.200500038E-2,6.155800074E-2
8.184231685E0,2.232299931E-2,-1.453599986E-2,9.508000314E-2
8.189162985E0,1.245599985E-2,-2.696999907E-2,1.046949998E-1
8.194094141E0,-3.230600059E-2,1.897799969E-2,8.811599761E-2
8.199025218E0,-3.885899857E-2,5.182300135E-2,7.403200120E-2
8.203956529E0,-1.499299984E-2,6.496199965E-2,5.759999901E-2
8.208887608E0,-1.947700046E-2,1.009079963E-1,3.888000175E-2
8.213818760E0,2.081100084E-2,7.978499681E-2,1.293599978E-2
8.218750047E0,6.759099662E-2,7.554499805E-2,-5.841999780E-3
8.223681126E0,8.133900166E-2,7.129599899E-2,-3.418900073E-2
8.228612278E0,9.098599851E-2,4.403699934E-2,-5.303600058E-2
8.233543601E0,8.478400111E-2,1.536999946E-3,-4.807199910E-2
8.238474680E0,9.088999778E-2,-2.326500043E-2,-5.994699895E-2
8.243405827E0,9.444600344E-2,-4.934699833E-2,-4.080599919E-2
8.248337134E0,8.353199810E-2,-5.110999942E-2,-6.000899896E-2
8.253268213E0,4.457399994E-2,-2.234400064E-2,-9.351299703E-2
8.258199379E0,5.985000171E-3,1.744000055E-2,-9.579999745E-2
8.263130687E0,-6.527999882E-3,2.624100074E-2,-8.133800328E-2
8.268061843E0,-3.943200037E-2,4.542100057E-2,-1.002409980E-1
8.272992939E0,-3.680000082E-2,8.158300072E-2,-1.548530012E-1
8.277924244E0,-4.115799814E-2,7.274899632E-2,-1.568340063E-1
8.282855400E0,-2.030899934E-2,4.602500051E-2,-1.493709981E-1
8.287786477E0,4.275000188E-3,5.916199833E-2,-1.370500028E-1
8.292717783E0,2.162200026E-2,6.182700023E-2,-7.458800077E-2
8.297648862E0,1.090100035E-2,6.903400272E-2,-1.449200045E-2
8.302580043E0,-1.685000025E-3,7.349400222E-2,1.452399977E-2
8.307511350E0,1.643200032E-2,8.003400266E-2,4.355999827E-2
8.312442506E0,-7.623999845E-3,4.924799874E-2,6.054700166E-2
8.317373812E0,6.246000063E-3,3.560199961E-2,4.876099899E-2
8.322304891E0,1.506000012E-2,2.943000011E-2,4.652399942E-2
8.327236043E0,2.576800063E-2,3.997800127E-2,3.231000155E-2
8.332167137E0,4.739899933E-2,6.264999975E-3,3.232900053E-2
8.337098442E0,2.842500061E-2,-4.013900086E-2,3.697700053E-2
8.342029598E0,1.887699962E-2,-5.225399882E-2,3.197199851E-2
8.346960918E0,-2.709999972E-4,-6.588199735E-2,6.998000294E-2
8.351891997E0,-1.087000011E-3,-4.620100185E-2,1.151809990E-1
8.356823074E0,1.611600071E-2,-6.646899879E-2,1.339589953E-1
8.361754231E0,2.281299978E-2,-6.739299744E-2,1.790480018E-1
8.366685538E0,3.465000074E-3,-7.778599858E-2,1.642729938E-1
8.371616694E0,3.593299910E-2,-7.870099694E-2,1.590770036E-1
8.376547785E0,6.795199960E-2,-6.144699827E-2,1.419979930E-1
8.381479091E0,6.842499971E-2,-8.000499755E-2,1.893319935E-1
8.386410170E0,5.368699878E-2,-7.966999710E-2,1.840360016E-1
8.391341312E0,4.286200181E-2,-5.679000169E-2,1.908600032E-1
8.396272619E0,2.694400027E-2,-4.561499879E-2,2.817089856E-1
8.401203775E0,-1.128499955E-2,-2.107499912E-2,3.175939918E-1
8.406134867E0,-4.800600186E-2,-1.163399965E-2,2.841320038E-1
8.411066173E0,-3.677599877E-2,5.745000020E-2,2.485190034E-1
8.415997329E0,-2.300300077E-2,8.681999892E-2,2.082539946E-1
8.420928635E0,2.587999962E-2,9.936600178E-2,1.847440004E-1
8.425859713E0,7.191299647E-2,9.228099883E-2,1.133899987E-1
8.430790860E0,1.219479963E-1,5.681699887E-2,9.706799686E-2
8.435721939E0,1.498530060E-1,2.661100030E-2,8.308699727E-2
8.440653245E0,1.674840003E-1,5.101399869E-2,9.308499843E-2
8.445584406E0,1.771499962E-1,4.231800139E-2,8.388199657E-2
8.450515483E0,1.537950039E-1,6.624899805E-2,6.276699901E-2
8.455446788E0,1.373230070E-1,8.499000221E-2,2.732199989E-2
8.460377929E0,1.392070055E-1,4.316699877E-2,4.438399896E-2
8.465309006E0,1.057230011E-1,6.108200178E-2,2.315500006E-2
8.470240312E0,7.079599798E-2,7.639600337E-2,-4.831700027E-2
8.475171473E0,4.884700105E-2,9.160800278E-2,-3.596600145E-2
8.480102778E0,2.326500043E-2,1.160850003E-1,1.234600041E-2
8.485033857E0,-3.410999896E-3,1.325490028E-1,-8.768600225E-2
8.489964990E0,1.535199955E-2,8.100300282E-2,-1.471560001E-1
8.494896298E0,2.725899965E-2,9.919999866E-4,-1.637849957E-1
8.499827362E0,6.930500269E-2,-1.847199909E-2,-1.852860004E-1
8.504758514E0,7.999599725E-2,-1.627399959E-2,-2.283480018E-1
8.509689821E0,3.922700137E-2,-4.167500138E-2,-2.188320011E-1
8.514620891E0,5.742299929E-2,-4.965899885E-2,-2.046049982E-1
8.519552043E0,4.460100085E-2,1.038999995E-3,-1.639190018E-1
8.524483351E0,1.058499981E-2,-7.567999884E-3,-1.400460005E-1
8.529414415E0,1.153100003E-2,1.927400008E-2,-7.543600351E-2
8.534345567E0,-9.244999848E-3,3.168300167E-2,-1.082199998E-2
8.539276874E0,4.656999838E-3,3.455900028E-2,4.897899926E-2
8.544207953E0,3.617300093E-2,3.491999954E-2,8.243499696E-2
8.549139105E0,5.480900034E-2,1.401900034E-2,9.190700203E-2
8.554070413E0,8.439599723E-2,-2.043600008E-2,1.060739979E-1
8.559001473E0,9.470699728E-2,-3.115100041E-2,6.998100132E-2
8.563932625E0,9.141600132E-2,-6.779900193E-2,2.667899989E-2
8.568863704E0,6.800000370E-2,-6.671500206E-2,1.936499961E-2
8.573795058E0,2.974800020E-2,-8.014799654E-2,-3.100400046E-2
8.578726137E0,9.351000190E-3,-6.319999695E-2,-3.819200024E-2
8.583657443E0,-1.950000040E-2,-5.161200091E-2,-4.051899910E-2
8.588588594E0,-7.053700089E-2,-4.293400049E-2,-5.474099889E-2
8.593519671E0,-8.757700026E-2,-2.289500087E-2,-7.368800044E-2
8.598450976E0,-8.107899874E-2,-8.619999862E-4,-3.513300046E-2
8.603382055E0,-7.983700186E-2,-4.848000128E-3,-3.971200064E-2
8.608313207E0,-9.776599705E-2,-1.476999954E-3,-7.064200193E-2
8.613244525E0,-9.000399709E-2,-7.168999873E-3,-8.008699864E-2
8.618175681E0,-5.704599991E-2,-1.006000023E-2,-6.085500121E-2
8.623106758E0,-4.595499858E-2,-1.005399972E-2,-8.716899902E-2
8.628038048E0,-1.403700002E-2,-1.880500093E-2,-7.765900344E-2
8.632969127E0,-1.533699967E-2,-1.505300030E-2,-5.622899905E-2
8.637900284E0,-2.561699972E-2,-1.320299972E-2,-1.328600012E-2
8.642831363E0,-3.758699819E-2,-3.837000113E-3,3.442199901E-2
8.647762669E0,-1.876099966E-2,-1.759600081E-2,6.528600305E-2
8.652693830E0,-7.203999907E-3,-1.216800045E-2,6.023399904E-2
8.657624907E0,4.178000148E-3,-1.593500003E-2,1.006359980E-1
8.662556212E0,3.379400074E-2,-1.496199984E-2,1.146899983E-1
8.667487382E0,2.058099955E-2,-2.787899971E-2,1.478569955E-1
8.672418688E0,1.223099977E-2,-5.913800001E-2,1.641899943E-1
8.677349767E0,6.136000156E-3,-5.487599969E-2,1.638000011E-1
8.682280919E0,3.240500018E-2,-7.201600075E-2,1.873210073E-1
8.687211998E0,1.331800036E-2,-4.457100108E-2,2.324839979E-1
8.692143303E0,8.383000270E-3,-1.596700028E-2,2.442360073E-1
8.697074473E0,3.351400048E-2,-1.650900021E-2,2.608020008E-1
8.702005550E0,5.318000168E-2,-2.933499962E-2,2.390750051E-1
8.706936856E0,2.811199985E-2,-2.606499940E-2,2.629170120E-1
8.711868012E0,3.645100072E-2,-1.879600063E-2,2.245790064E-1
8.716799089E0,4.955200106E-2,-4.463500157E-2,2.316949964E-1
8.721730394E0,4.869399965E-2,-3.550300002E-2,1.958079934E-1
8.726661545E0,3.664600104E-2,-2.941299975E-2,1.599940062E-1
8.731592851E0,1.828799956E-2,1.342099998E-2,1.315270066E-1
8.736523930E0,-1.064100023E-2,1.981700025E-2,8.876799792E-2
8.741455092E0,-1.188999973E-3,5.834199861E-2,4.614299908E-2
8.746386399E0,-1.971700042E-2,6.545200199E-2,2.271600068E-2
8.751317478E0,-2.125100046E-2,9.564699978E-2,6.564999931E-3
8.756248629E0,-8.496999741E-3,8.319800347E-2,-1.681300066E-2
8.761179937E0,-7.635999937E-3,8.525999635E-2,-4.977700114E-2
8.766111016E0,9.597999975E-3,5.971499905E-2,-5.412000045E-2
8.771042164E0,3.551299870E-2,7.009699941E-2,-8.242300153E-2
8.775973471E0,9.077499807E-2,5.488299951E-2,-1.419589967E-1
8.780904550E0,1.048009992E-1,5.675299838E-2,-1.704079956E-1
8.785835702E0,1.066630036E-1,6.363800168E-2,-1.821220070E-1
8.790767010E0,1.269609928E-1,4.544200003E-2,-1.628489941E-1
8.795698089E0,1.416130066E-1,3.549399972E-2,-1.077840030E-1
8.800629241E0,1.249310002E-1,3.818099946E-2,-5.757499859E-2
8.805560548E0,1.336070001E-1,6.229199842E-2,-5.046999827E-2
8.810491631E0,1.228009984E-1,2.810600027E-2,-1.957700029E-2
8.815422783E0,8.385899663E-2,5.088400096E-2,-1.257000025E-2
8.820354091E0,7.350400090E-2,6.176000088E-2,4.470900074E-2
8.825285176E0,5.396199971E-2,4.216499999E-2,9.953700006E-2
8.830216328E0,4.210700095E-2,9.062999859E-3,1.806299984E-1
8.835147635E0,4.000800103E-2,2.291099913E-2,1.636489928E-1
8.840078714E0,6.847500056E-2,7.765999995E-3,1.538709998E-1
8.845009866E0,8.020500094E-2,-2.851600014E-2,1.608159989E-1
8.849941188E0,8.758199960E-2,-2.042699978E-2,1.104120016E-1
8.854872267E0,8.860500157E-2,-3.904199973E-2,6.245199963E-2
8.859803419E0,6.956300139E-2,-3.212200105E-2,3.853800148E-2
8.864734726E0,8.196999878E-2,-4.214999825E-2,-4.507999867E-3
8.869665805E0,8.518800139E-2,-5.470899865E-2,-5.711200088E-2
8.874596957E0,5.186900124E-2,-2.073399909E-2,-4.491100088E-2
8.879528265E0,2.614899911E-2,-2.487000078E-2,-3.990399837E-2
8.884459344E0,-6.593000144E-3,-1.932499930E-2,-6.842400134E-2
8.889390496E0,-5.296299979E-2,1.424899977E-2,-8.488900214E-2
8.894321808E0,-8.471599966E-2,5.175900087E-2,-1.108380035E-1
8.899252887E0,-9.743099660E-2,4.676799849E-2,-1.368490010E-1
8.904184039E0,-7.523600012E-2,8.418799937E-2,-1.412589997E-1
8.909115128E0,-5.374100059E-2,6.978800148E-2,-1.744939983E-1
8.914046434E0,-4.672300071E-2,7.723499835E-2,-1.742389947E-1
8.918977590E0,-6.750199944E-2,6.900600344E-2,-1.309799999E-1
8.923908652E0,-3.635900095E-2,1.752099954E-2,-1.214760020E-1
8.928839957E0,-4.322899878E-2,-6.312000100E-3,-1.025199965E-1
8.933771113E0,-1.738099940E-2,1.298800018E-2,-7.161100209E-2
8.938702424E0,2.855000086E-2,-1.433200017E-2,-6.719099730E-2
8.943633580E0,3.798500076E-2,-1.716700010E-2,-1.973799989E-2
8.948564585E0,6.382899731E-2,-3.373999894E-2,4.680100083E-2
8.953495737E0,5.599499866E-2,-3.328499943E-2,8.219099790E-2
8.958427044E0,4.330100119E-2,-4.581999965E-3,1.535409987E-1
8.963358429E0,4.008499905E-2,-1.395300031E-2,2.368440032E-1
8.968289508E0,4.132800177E-2,-2.347999997E-2,2.794519961E-1
8.973220585E0,4.455199838E-2,-4.024200141E-2,3.316400051E-1
8.978151662E0,4.742600024E-2,-5.254900083E-2,3.335709870E-1
8.983083044E0,5.486800149E-2,-5.821999907E-2,3.140060008E-1
8.988014123E0,4.575100169E-2,-5.252800137E-2,2.969000041E-1
8.992945265E0,1.561299991E-2,-8.863200247E-2,2.772859931E-1
8.997876344E0,6.140000187E-4,-8.246699721E-2,2.505860031E-1
9.002807660E0,2.603299916E-2,-4.681599885E-2,2.096669972E-1
9.007738816E0,2.325700037E-2,-3.820399940E-2,2.023430020E-1
9.012669893E0,-1.831400022E-2,-2.577999979E-2,1.735959947E-1
9.017601207E0,9.429999627E-3,-7.211999968E-3,1.329730004E-1
9.022532363E0,-1.161700021E-2,-1.043299958E-2,1.283169985E-1
9.027463669E0,-4.302499816E-2,1.862600073E-2,1.094380021E-1
9.032394748E0,-6.606099755E-2,2.800299972E-2,9.782200307E-2
9.037325900E0,-9.518299997E-2,2.740900032E-2,4.795600101E-2
9.042256979E0,-1.187060028E-1,5.217700079E-2,7.784000132E-3
9.047188299E0,-1.115439981E-1,5.968400091E-2,-1.079300046E-2
9.052119455E0,-1.004140005E-1,2.032200061E-2,-1.511500031E-2
9.057050531E0,-7.870899886E-2,3.093500063E-2,-2.661499940E-2
9.061981837E0,1.918000053E-3,8.580000140E-3,-6.697499752E-2
9.066912916E0,7.706999779E-2,-3.746999893E-3,-7.632099837E-2
9.071844064E0,1.214310005E-1,-1.763200015E-2,-8.100499958E-2
9.076775371E0,1.823669970E-1,-1.651800051E-2,-1.637299918E-2
9.081706527E0,1.735689938E-1,-3.339299932E-2,5.049000029E-3
9.086637599E0,1.601839960E-1,-3.529699892E-2,2.641900070E-2
9.091568905E0,1.565809995E-1,2.920999890E-3,5.743100122E-2
9.096500061E0,1.068580002E-1,4.523999989E-2,8.854799718E-2
9.101431361E0,4.514899850E-2,3.532100096E-2,7.896900177E-2
9.106362440E0,3.711500019E-2,3.504399955E-2,7.897800207E-2
9.111293592E0,-1.872999966E-2,3.936399892E-2,3.835299984E-2
9.116224656E0,-3.721399978E-2,-7.520000217E-4,4.075099900E-2
9.121155962E0,-5.677099898E-2,-3.282300010E-2,2.393800020E-2
9.126087118E0,-6.373500079E-2,-6.404700130E-2,9.452999569E-3
9.131018423E0,-7.498099655E-2,-9.229200333E-2,-3.140899912E-2
9.135949502E0,-1.046880037E-1,-1.056500003E-1,-2.441800013E-2
9.140880579E0,-8.990500122E-2,-1.208719984E-1,-3.664800152E-2
9.145811717E0,-1.226919964E-1,-1.077369973E-1,-2.489000000E-2
9.150743025E0,-1.412850022E-1,-8.318500221E-2,-1.068400033E-2
9.155674181E0,-1.392010003E-1,-6.623700261E-2,8.333000354E-3
9.160605258E0,-1.168399975E-1,-4.725499824E-2,3.214300051E-2
9.165536563E0,-1.072899997E-1,1.359999995E-3,2.495099977E-2
9.170467642E0,-8.023200184E-2,1.978999935E-3,1.299799979E-2
9.175398794E0,-4.756499827E-2,-1.121900044E-2,-1.440000022E-3
9.180330102E0,-1.391899958E-2,-2.167000063E-2,-1.594099961E-2
9.185261258E0,1.171499956E-2,-5.915100127E-2,-6.654000282E-2
9.190192340E0,2.278199978E-2,-8.123700321E-2,-1.052680016E-1
9.195123645E0,4.031899944E-2,-8.622000366E-2,-9.854999930E-2
9.200054724E0,6.853000075E-2,-8.162599802E-2,-1.062299982E-1
9.204985861E0,7.166299969E-2,-9.919299930E-2,-7.311400026E-2
9.209917169E0,2.789800055E-2,-6.698200107E-2,-3.035200015E-2
9.214848325E0,5.880999845E-3,-4.699100181E-2,2.680299990E-2
9.219779417E0,-6.761000026E-3,-3.419400007E-2,2.889199927E-2
9.224710722E0,-2.189500071E-2,3.947000019E-3,3.106399998E-2
9.229641878E0,-3.910300136E-2,5.035300180E-2,6.209599972E-2
9.234572936E0,-1.404900011E-2,5.827900022E-2,6.918399781E-2
9.239504242E0,-1.162000000E-3,2.395799942E-2,6.421499699E-2
9.244435321E0,9.332000278E-3,2.076999983E-3,9.511999786E-2
9.249366482E0,4.789699987E-2,-1.478500012E-2,9.486400336E-2
9.254297789E0,2.550899982E-2,-1.296999981E-3,9.470900148E-2
9.259228868E0,5.881299824E-2,-2.054600045E-2,1.088119969E-1
9.264160035E0,8.853500336E-2,-2.800700068E-2,9.177599847E-2
9.269091343E0,9.396599978E-2,1.469300035E-2,9.416600317E-2
9.274022422E0,1.039440036E-1,-2.512000035E-3,7.979399711E-2
9.278953548E0,1.181870028E-1,2.246100083E-2,1.133800000E-1
9.283884626E0,9.712299705E-2,5.570200086E-2,9.202799946E-2
9.288815932E0,7.420799881E-2,8.081500232E-2,1.138710007E-1
9.293747088E0,7.036700100E-2,7.490800321E-2,1.237339973E-1
9.298678394E0,1.058799997E-1,7.590000331E-2,7.134199888E-2
9.303609478E0,6.816700101E-2,6.520300359E-2,7.401800156E-2
9.308540630E0,8.256699890E-2,3.148499876E-2,4.068399966E-2
9.313471708E0,8.710599691E-2,4.991399869E-2,3.133599833E-2
9.318403024E0,8.673500270E-2,2.153700031E-2,3.386100009E-2
9.323334180E0,6.991299987E-2,2.452200092E-2,3.637199849E-2
9.328265257E0,4.991399869E-2,2.047099918E-2,3.167000040E-2
9.333196568E0,4.683899879E-2,1.077999943E-3,4.121199995E-2
9.338127724E0,1.875800081E-2,-1.110999961E-3,3.158000112E-2
9.343058800E0,1.262400020E-2,1.741600037E-2,-2.105999924E-2
9.347990101E0,2.978399955E-2,1.714899950E-2,-2.586299926E-2
9.352921257E0,4.180099815E-2,8.225000463E-3,-6.814000197E-3
9.357852563E0,5.463699996E-2,3.732499853E-2,1.706900075E-2
9.362783661E0,1.840700023E-2,1.013599988E-2,1.452500001E-2
9.367714813E0,2.284299955E-2,-4.310999997E-3,6.219099835E-2
9.372645891E0,2.250600047E-2,-1.114199962E-2,9.066600353E-2
9.377577207E0,1.279699989E-2,8.270000108E-4,1.143879965E-1
9.382508363E0,2.663099952E-2,2.173699997E-2,1.501359940E-1
9.387439440E0,5.848800018E-2,7.127000019E-3,1.762450039E-1
9.392370741E0,4.508300126E-2,2.305600047E-2,2.119919956E-1
9.397301897E0,5.974800140E-2,7.919999771E-3,2.261749953E-1
9.402233202E0,9.936299920E-2,1.830499992E-2,1.757600009E-1
9.407164281E0,1.237879992E-1,1.401299983E-2,1.684579998E-1
9.412095428E0,1.497890055E-1,6.700000085E-5,1.419990063E-1
9.417026507E0,1.749919951E-1,-1.399299968E-2,1.586360037E-1
9.421957813E0,1.809010059E-1,-1.651600003E-2,1.633419991E-1
9.426888969E0,1.727039963E-1,-1.236100029E-2,1.369770020E-1
9.431820045E0,1.811569929E-1,3.017999930E-3,1.250440031E-1
9.436751351E0,1.313319951E-1,-1.040000003E-2,1.251170039E-1
9.441682492E0,1.131609976E-1,3.440999985E-2,1.133729964E-1
9.446613569E0,7.962200046E-2,5.211099982E-2,6.341099739E-2
9.451544875E0,1.723800041E-2,8.772700280E-2,2.317200042E-2
9.456476031E0,-1.056199986E-2,7.803700119E-2,4.482000135E-3
9.461407107E0,-2.568300068E-2,1.081049964E-1,-6.926999893E-3
9.466338413E0,-3.562900051E-2,9.099899977E-2,-1.120899990E-2
9.471269560E0,8.200000040E-3,6.311599910E-2,1.138000051E-3
9.476200637E0,5.769700184E-2,4.324699938E-2,-8.158000186E-3
9.481131943E0,9.395399690E-2,-3.523000050E-3,-1.045800000E-2
9.486063084E0,1.262450069E-1,-4.064499959E-2,1.090199966E-2
9.490994160E0,1.408379972E-1,-6.399100274E-2,2.490100078E-2
9.495925466E0,1.341519952E-1,-9.025699645E-2,3.155200183E-2
9.500856556E0,1.366689950E-1,-6.483999640E-2,2.872299962E-2
9.505787708E0,1.297660023E-1,-8.359500021E-2,2.338599972E-2
9.510719016E0,8.456499875E-2,-8.533599973E-2,1.086900011E-2
9.515650085E0,3.491500020E-2,-3.010299988E-2,1.301200036E-2
9.520581236E0,-1.882999949E-2,-3.009000048E-2,1.519799978E-2
9.525512544E0,-6.725999713E-2,-9.654999711E-3,3.427800164E-2
9.530443695E0,-9.228999913E-2,2.818600088E-2,-3.953000065E-3
9.535374772E0,-1.093460023E-1,1.578300074E-2,8.103000000E-3
9.540305849E0,-8.391699940E-2,2.672200091E-2,8.237999864E-3
9.545237136E0,-7.996500283E-2,2.789199911E-2,-8.363000117E-3
9.550168291E0,-6.205999851E-2,5.437599868E-2,-1.051199995E-2
9.555099592E0,-5.071000196E-3,2.410200052E-2,-4.626300186E-2
9.560030748E0,-5.427999888E-3,4.591500014E-2,-3.886099905E-2
9.564961825E0,1.277600043E-2,3.699100018E-2,-1.713299938E-2
9.569892912E0,2.377999946E-3,5.873800069E-2,1.421200018E-2
9.574824218E0,-3.454999998E-3,3.141900152E-2,3.826300055E-2
9.579755373E0,-2.990400046E-2,2.125800028E-2,6.707900017E-2
9.584686664E0,-1.709900051E-2,6.897000223E-2,9.127099812E-2
9.589617743E0,3.658999922E-3,4.624700174E-2,8.418600261E-2
9.594548895E0,1.620200090E-2,4.060700163E-2,3.635700047E-2
9.599480193E0,6.804899871E-2,1.738999970E-2,2.729000058E-3
9.604411272E0,1.091210023E-1,-2.629999944E-4,-4.645999987E-3
9.609342423E0,1.143300012E-1,-4.510100186E-2,6.992999930E-3
9.614273722E0,1.058029979E-1,-6.520000100E-2,1.856799982E-2
9.619204801E0,1.048429981E-1,-1.007699966E-1,4.200400040E-2
9.624135953E0,8.328399807E-2,-9.787700325E-2,9.895800054E-2
9.629067256E0,5.070500076E-2,-8.347299695E-2,1.320230067E-1
9.633998335E0,9.642999619E-3,-5.802899972E-2,1.077240035E-1
9.638929486E0,-5.572199821E-2,-3.580500185E-2,8.831299841E-2
9.643860789E0,-7.945899665E-2,-1.453000028E-2,9.293600172E-2
9.648791868E0,-1.092209965E-1,7.885999978E-3,7.613900304E-2
9.653723030E0,-6.104300171E-2,1.752500050E-2,2.588300034E-2
9.658654338E0,-5.100300163E-2,1.949200034E-2,2.595400065E-2
9.663585417E0,-5.310399830E-2,4.236499965E-2,3.086899966E-2
9.668516568E0,-4.105599970E-2,5.035600066E-2,3.822600096E-2
9.673447647E0,-1.537400018E-2,6.038299948E-2,6.475800276E-2
9.678378953E0,-1.169500034E-2,6.291499734E-2,1.200449988E-1
9.683310109E0,1.243000012E-2,6.761100143E-2,1.298519969E-1
9.688241186E0,4.254899919E-2,5.545600131E-2,1.181000024E-1
9.693172492E0,9.877300262E-2,3.596000001E-2,1.518269926E-1
9.698103666E0,1.390320063E-1,1.903899945E-2,1.089010015E-1
9.703034743E0,2.032900006E-1,-1.612499915E-2,1.113609970E-1
9.707966049E0,2.050109953E-1,-4.813700169E-2,1.113639995E-1
9.712897190E0,1.880059987E-1,-4.909300059E-2,8.983399719E-2
9.717828496E0,2.089319974E-1,-4.078799859E-2,6.115299836E-2
9.722759575E0,1.877630055E-1,-4.216299951E-2,4.446399957E-2
9.727690726E0,1.259869933E-1,-3.648199886E-2,3.978199884E-2
9.732621805E0,9.222000092E-2,-7.675999776E-3,1.842799969E-2
9.737553111E0,6.696999818E-2,1.582599990E-2,-5.260000005E-3
9.742484282E0,5.855999887E-3,-3.099999949E-2,-5.301300064E-2
9.747415588E0,-2.528399974E-2,-3.903099895E-2,-9.840700030E-2
9.752346667E0,-2.280399948E-2,-3.242100030E-2,-9.594400227E-2
9.757277747E0,-3.648899868E-2,-2.551599964E-2,-1.030780002E-1
9.762208899E0,-2.660699934E-2,-4.145000130E-2,-1.270779967E-1
9.767140207E0,-2.655800059E-2,-6.309100240E-2,-9.854099900E-2
9.772071378E0,3.343000077E-3,-6.714200228E-2,-7.008700073E-2
9.777002684E0,8.766000159E-3,-4.936699942E-2,-2.011599950E-2
9.781933532E0,1.367300004E-2,-5.249499902E-2,8.240999654E-3
9.786864914E0,1.817799918E-2,-3.859300166E-2,7.009500265E-2
9.791795993E0,5.741300061E-2,-1.539800037E-2,8.647800237E-2
9.796727289E0,4.695900157E-2,-8.991000243E-3,8.850000054E-2
9.801658368E0,3.954799846E-2,-2.880000044E-3,6.661400199E-2
9.806589520E0,5.073999986E-3,5.278000142E-3,8.787299693E-2
